File: TGA & DTA Data Files/TGA&DTA_PU_Sample1.txt
Time(sec)	Temp(C)	DTA(uV)	TGA(mg)
0.000000	28.3585	-0.534000	1.640202
4.000000	28.5933	-0.518000	1.658699
8.000000	28.5374	-0.501000	1.680302
12	28.7401	-0.497000	1.694099
16	28.7534	-0.513000	1.687202
20	28.9786	-0.542000	1.644302
24	29.2471	-0.577000	1.647400
28	29.4554	-0.611000	1.700100
32	29.882	-0.646000	1.681999
36	30.1474	-0.681000	1.686001
40	30.6778	-0.706000	1.686199
44	30.9117	-0.717000	1.656601
48	31.519	-0.726000	1.656601
52	31.7296	-0.737000	1.660500
56	32.3775	-0.746000	1.669201
60	32.7345	-0.754000	1.712200
64	33.3378	-0.756000	1.712402
68	33.7944	-0.755000	1.703102
72	34.399	-0.751000	1.708099
76	34.9043	-0.745000	1.684002
80	35.5015	-0.737000	1.659801
84	36.152	-0.724000	1.677299
88	36.6455	-0.713000	1.732800
92	37.4391	-0.706000	1.753201
96	37.8845	-0.694000	1.728703
100	38.6779	-0.678000	1.690701
104	39.1223	-0.661000	1.658600
108	39.9018	-0.650000	1.649200
112	40.3629	-0.641000	1.625202
116	41.129	-0.635000	1.607101
120	41.6571	-0.632000	1.618401
124	42.337	-0.632000	1.633701
128	42.9764	-0.629000	1.645500
132	43.5745	-0.622000	1.636200
136	44.3257	-0.610000	1.589100
140	44.9025	-0.596000	1.557800
144	45.6931	-0.585000	1.547001
148	46.2115	-0.579000	1.549400
152	47.072	-0.580000	1.595200
156	47.5652	-0.578000	1.640800
160	48.3876	-0.575000	1.683102
164	48.9203	-0.570000	1.680202
168	49.6911	-0.565000	1.631702
172	50.3108	-0.561000	1.609901
176	51.0007	-0.559000	1.611801
180	51.6605	-0.555000	1.617302
184	52.2827	-0.547000	1.616901
188	53.0484	-0.544000	1.627201
192	53.5604	-0.546000	1.648502
196	54.4061	-0.544000	1.691601
200	54.9174	-0.531000	1.715500
204	55.7397	-0.515000	1.673599
208	56.3124	-0.504000	1.662502
212	57.1252	-0.501000	1.695499
216	57.6741	-0.496000	1.656002
220	58.4441	-0.483000	1.631203
224	59.095	-0.477000	1.634399
228	59.7406	-0.475000	1.626701
232	60.5098	-0.473000	1.650002
236	61.0383	-0.477000	1.724503
240	61.8294	-0.478000	1.750900
244	62.2949	-0.476000	1.731201
248	63.1057	-0.480000	1.708702
252	63.6057	-0.485000	1.695801
256	64.4327	-0.489000	1.680901
260	65.0027	-0.490000	1.683201
264	65.7458	-0.490000	1.730400
268	66.419	-0.500000	1.803501
272	67.0753	-0.512000	1.845901
276	67.8252	-0.523000	1.791599
280	68.3959	-0.530000	1.715599
284	69.2052	-0.539000	1.701500
288	69.6879	-0.555000	1.666599
292	70.5198	-0.569000	1.638901
296	71.0107	-0.569000	1.649002
300	71.7915	-0.562000	1.669903
304	72.3335	-0.564000	1.672401
308	73.0911	-0.574000	1.655201
312	73.7034	-0.584000	1.640499
316	74.3839	-0.591000	1.634800
320	75.1089	-0.595000	1.636002
324	75.7018	-0.604000	1.629700
328	76.5219	-0.620000	1.622101
332	77.0461	-0.630000	1.629803
336	77.8932	-0.631000	1.644600
340	78.3822	-0.630000	1.665001
344	79.1763	-0.631000	1.664001
348	79.7422	-0.623000	1.651802
352	80.4617	-0.599000	1.658600
356	81.088	-0.553000	1.668102
360	81.731	-0.493000	1.653400
364	82.4496	-0.424000	1.637199
368	82.9965	-0.351000	1.633602
372	83.7772	-0.272000	1.634800
376	84.257	-0.191000	1.632202
380	85.0652	-0.119000	1.624203
384	85.5834	-0.059000	1.618099
388	86.4048	-0.015000	1.623699
392	86.97	0.016000	1.633202
396	87.721	0.039000	1.627300
400	88.3598	0.049000	1.623501
404	88.9926	0.040000	1.648201
408	89.7455	0.016000	1.673000
412	90.3057	-0.012000	1.669003
416	91.0642	-0.045000	1.655102
420	91.5433	-0.084000	1.668503
424	92.338	-0.126000	1.661900
428	92.8284	-0.167000	1.658802
432	93.5917	-0.207000	1.664501
436	94.1593	-0.244000	1.666000
440	94.8629	-0.283000	1.663502
444	95.5155	-0.322000	1.662601
448	96.1494	-0.356000	1.655300
452	96.9262	-0.385000	1.653099
456	97.4645	-0.411000	1.656101
460	98.2844	-0.439000	1.658401
464	98.7587	-0.470000	1.623600
468	99.5762	-0.501000	1.624599
472	100.096	-0.526000	1.648102
476	100.845	-0.551000	1.645500
480	101.416	-0.579000	1.615700
484	102.08	-0.608000	1.619602
488	102.781	-0.632000	1.632301
492	103.367	-0.652000	1.639301
496	104.131	-0.670000	1.648201
500	104.637	-0.689000	1.654102
504	105.424	-0.713000	1.666000
508	105.936	-0.736000	1.630699
512	106.744	-0.756000	1.611900
516	107.314	-0.775000	1.625900
520	108.072	-0.798000	1.642700
524	108.695	-0.825000	1.656902
528	109.357	-0.850000	1.635700
532	110.086	-0.869000	1.641201
536	110.639	-0.882000	1.664803
540	111.426	-0.895000	1.666203
544	111.906	-0.911000	1.710503
548	112.697	-0.929000	1.701099
552	113.195	-0.940000	1.675800
556	113.961	-0.949000	1.737701
560	114.514	-0.972000	1.775200
564	115.213	-1.004000	1.755802
568	115.85	-1.036000	1.720901
572	116.478	-1.071000	1.731701
576	117.222	-1.110000	1.715000
580	117.784	-1.145000	1.734200
584	118.593	-1.175000	1.782200
588	119.113	-1.196000	1.743603
592	119.923	-1.205000	1.754101
596	120.439	-1.219000	1.816101
600	121.179	-1.241000	1.845303
604	121.776	-1.265000	1.834301
608	122.441	-1.287000	1.750099
612	123.132	-1.301000	1.709999
616	123.707	-1.314000	1.690601
620	124.483	-1.326000	1.678699
624	124.962	-1.332000	1.690399
628	125.769	-1.336000	1.733601
632	126.285	-1.339000	1.711502
636	127.051	-1.335000	1.681602
640	127.634	-1.336000	1.733101
644	128.349	-1.343000	1.794003
648	129.031	-1.343000	1.817501
652	129.695	-1.341000	1.844700
656	130.455	-1.340000	1.857502
660	130.987	-1.330000	1.842800
664	131.771	-1.312000	1.787300
668	132.285	-1.291000	1.789803
672	133.061	-1.273000	1.831303
676	133.598	-1.268000	1.848400
680	134.319	-1.282000	1.850800
684	134.918	-1.297000	1.839500
688	135.606	-1.312000	1.843300
692	136.315	-1.335000	1.856300
696	136.904	-1.355000	1.839199
700	137.663	-1.373000	1.778702
704	138.181	-1.397000	1.725101
708	139.007	-1.415000	1.679600
712	139.534	-1.421000	1.723000
716	140.3	-1.421000	1.798901
720	140.933	-1.420000	1.830502
724	141.625	-1.413000	1.838100
728	142.289	-1.396000	1.833900
732	142.914	-1.377000	1.854900
736	143.653	-1.369000	1.870701
740	144.172	-1.366000	1.871700
744	144.978	-1.371000	1.873100
748	145.467	-1.377000	1.870602
752	146.273	-1.381000	1.878300
756	146.805	-1.395000	1.867901
760	147.539	-1.410000	1.868401
764	148.155	-1.422000	1.881500
768	148.817	-1.440000	1.889900
772	149.537	-1.473000	1.875500
776	150.123	-1.515000	1.872299
780	150.886	-1.558000	1.871101
784	151.409	-1.591000	1.872601
788	152.218	-1.605000	1.875099
792	152.772	-1.607000	1.875801
796	153.52	-1.616000	1.865601
800	154.121	-1.633000	1.852501
804	154.817	-1.652000	1.857502
808	155.502	-1.675000	1.859200
812	156.105	-1.689000	1.842201
816	156.865	-1.673000	1.844501
820	157.383	-1.659000	1.874802
824	158.183	-1.665000	1.889702
828	158.672	-1.687000	1.899799
832	159.419	-1.718000	1.886803
836	160.042	-1.758000	1.871201
840	160.734	-1.772000	1.866501
844	161.389	-1.749000	1.868099
848	162.046	-1.730000	1.869499
852	162.81	-1.733000	1.865601
856	163.355	-1.748000	1.867599
860	164.182	-1.750000	1.861099
864	164.688	-1.733000	1.854000
868	165.469	-1.725000	1.862103
872	166.047	-1.711000	1.882603
876	166.758	-1.708000	1.889099
880	167.418	-1.710000	1.870502
884	168.071	-1.675000	1.876602
888	168.806	-1.626000	1.893101
892	169.355	-1.599000	1.898800
896	170.15	-1.589000	1.898300
900	170.634	-1.611000	1.895302
904	171.427	-1.637000	1.908199
908	171.967	-1.648000	1.919300
912	172.696	-1.647000	1.921402
916	173.317	-1.654000	1.911800
920	174.003	-1.695000	1.908600
924	174.726	-1.735000	1.904602
928	175.333	-1.746000	1.898399
932	176.123	-1.744000	1.890800
936	176.633	-1.750000	1.908802
940	177.461	-1.759000	1.924801
944	177.976	-1.771000	1.930901
948	178.73	-1.789000	1.950901
952	179.34	-1.789000	1.953201
956	180.026	-1.768000	1.937000
960	180.712	-1.723000	1.925201
964	181.326	-1.686000	1.914700
968	182.078	-1.658000	1.913300
972	182.586	-1.679000	1.923901
976	183.38	-1.754000	1.925900
980	183.888	-1.803000	1.929901
984	184.641	-1.821000	1.929302
988	185.248	-1.828000	1.949902
992	185.957	-1.829000	1.949600
996	186.635	-1.814000	1.932503
1000	187.29	-1.803000	1.929401
1004	188.049	-1.797000	1.925800
1008	188.584	-1.796000	1.921501
1012	189.394	-1.814000	1.932301
1016	189.914	-1.824000	1.929401
1020	190.682	-1.815000	1.926701
1024	191.278	-1.784000	1.927502
1028	191.945	-1.758000	1.950001
1032	192.633	-1.746000	1.949200
1036	193.235	-1.742000	1.941101
1040	193.984	-1.747000	1.951302
1044	194.543	-1.777000	1.964302
1048	195.317	-1.817000	1.975502
1052	195.814	-1.848000	1.985600
1056	196.597	-1.873000	1.973801
1060	197.183	-1.890000	1.967602
1064	197.88	-1.903000	1.972900
1068	198.571	-1.922000	1.986702
1072	199.191	-1.941000	1.988201
1076	199.967	-1.959000	1.971500
1080	200.536	-1.975000	1.959103
1084	201.292	-1.985000	1.939701
1088	201.809	-1.998000	1.911800
1092	202.589	-2.015000	1.911499
1096	203.161	-2.027000	1.938400
1100	203.858	-2.033000	1.945900
1104	204.544	-2.051000	1.951599
1108	205.145	-2.074000	1.950500
1112	205.902	-2.086000	1.966103
1116	206.463	-2.091000	1.983299
1120	207.227	-2.092000	1.989502
1124	207.748	-2.092000	1.989502
1128	208.542	-2.084000	1.976700
1132	209.113	-2.062000	1.969200
1136	209.829	-2.037000	1.976601
1140	210.499	-2.027000	1.952103
1144	211.113	-2.035000	1.918301
1148	211.88	-2.053000	1.916599
1152	212.446	-2.060000	1.906101
1156	213.219	-2.058000	1.900902
1160	213.755	-2.050000	1.887199
1164	214.538	-2.051000	1.900902
1168	215.09	-2.061000	1.950199
1172	215.814	-2.066000	1.982101
1176	216.463	-2.070000	1.999500
1180	217.074	-2.077000	1.961800
1184	217.847	-2.098000	1.940800
1188	218.382	-2.133000	1.941002
1192	219.132	-2.161000	1.949303
1196	219.657	-2.189000	1.944599
1200	220.411	-2.221000	1.934299
1204	220.956	-2.248000	1.927200
1208	221.686	-2.281000	1.918800
1212	222.317	-2.325000	1.932701
1216	222.966	-2.367000	1.933601
1220	223.711	-2.395000	1.909599
1224	224.258	-2.421000	1.912102
1228	225.051	-2.446000	1.903000
1232	225.572	-2.460000	1.888802
1236	226.356	-2.464000	1.905102
1240	226.93	-2.460000	1.947502
1244	227.654	-2.452000	1.958702
1248	228.283	-2.448000	1.933002
1252	228.934	-2.453000	1.920902
1256	229.684	-2.449000	1.937202
1260	230.213	-2.445000	1.938499
1264	230.992	-2.452000	1.909901
1268	231.511	-2.471000	1.883900
1272	232.274	-2.483000	1.892601
1276	232.846	-2.485000	1.910301
1280	233.552	-2.493000	1.917400
1284	234.198	-2.509000	1.907700
1288	234.843	-2.527000	1.935902
1292	235.601	-2.545000	1.948200
1296	236.147	-2.552000	1.922199
1300	236.96	-2.561000	1.909500
1304	237.476	-2.572000	1.925102
1308	238.27	-2.584000	1.947002
1312	238.867	-2.602000	1.968601
1316	239.579	-2.621000	1.983200
1320	240.237	-2.639000	1.982800
1324	240.865	-2.650000	1.960400
1328	241.61	-2.657000	1.949902
1332	242.148	-2.660000	1.943501
1336	242.952	-2.654000	1.943401
1340	243.444	-2.649000	1.952702
1344	244.209	-2.653000	1.963802
1348	244.795	-2.658000	1.967300
1352	245.493	-2.663000	1.979599
1356	246.159	-2.663000	1.991402
1360	246.772	-2.666000	1.975800
1364	247.505	-2.683000	1.957703
1368	248.05	-2.706000	1.968300
1372	248.862	-2.730000	1.974201
1376	249.366	-2.750000	1.975903
1380	250.147	-2.770000	1.975502
1384	250.73	-2.785000	1.990803
1388	251.456	-2.793000	1.989403
1392	252.105	-2.801000	1.989601
1396	252.716	-2.815000	1.978500
1400	253.461	-2.839000	1.997803
1404	253.991	-2.862000	1.981102
1408	254.78	-2.873000	1.983299
1412	255.297	-2.870000	2.016899
1416	256.041	-2.874000	2.008499
1420	256.614	-2.899000	1.962700
1424	257.305	-2.940000	1.931999
1428	257.978	-2.978000	1.929001
1432	258.577	-3.003000	1.934002
1436	259.32	-3.016000	1.946201
1440	259.88	-3.024000	1.981102
1444	260.641	-3.025000	1.992901
1448	261.182	-3.025000	2.007603
1452	261.953	-3.022000	2.019402
1456	262.52	-3.030000	1.989300
1460	263.231	-3.061000	1.962799
1464	263.928	-3.102000	1.974300
1468	264.541	-3.130000	1.950302
1472	265.31	-3.154000	1.940102
1476	265.871	-3.172000	1.977100
1480	266.632	-3.177000	2.009201
1484	267.146	-3.190000	2.007202
1488	267.919	-3.198000	1.996403
1492	268.514	-3.203000	2.001102
1496	269.204	-3.211000	2.015102
1500	269.855	-3.245000	2.019100
1504	270.463	-3.278000	2.017101
1508	271.212	-3.297000	2.015602
1512	271.758	-3.314000	2.012901
1516	272.524	-3.322000	2.017200
1520	273.021	-3.328000	2.021702
1524	273.799	-3.357000	1.996300
1528	274.399	-3.384000	1.993500
1532	275.116	-3.395000	2.009201
1536	275.767	-3.408000	1.985500
1540	276.391	-3.438000	1.974800
1544	277.162	-3.462000	2.001900
1548	277.693	-3.475000	2.011402
1552	278.472	-3.497000	1.972599
1556	279.003	-3.529000	1.944000
1560	279.738	-3.566000	1.941402
1564	280.335	-3.602000	1.979099
1568	281.023	-3.616000	2.009300
1572	281.694	-3.614000	2.008202
1576	282.28	-3.619000	1.971901
1580	283.045	-3.642000	1.956600
1584	283.562	-3.668000	1.985203
1588	284.318	-3.684000	1.984901
1592	284.867	-3.695000	1.994499
1596	285.59	-3.704000	2.016300
1600	286.185	-3.718000	2.032600
1604	286.885	-3.734000	2.012600
1608	287.567	-3.759000	1.971100
1612	288.167	-3.792000	1.936302
1616	288.933	-3.824000	1.948799
1620	289.474	-3.839000	2.012802
1624	290.261	-3.834000	2.054401
1628	290.821	-3.827000	2.074802
1632	291.55	-3.820000	2.042900
1636	292.135	-3.828000	2.037300
1640	292.833	-3.851000	2.040302
1644	293.518	-3.884000	2.003502
1648	294.107	-3.913000	1.979599
1652	294.864	-3.940000	1.955502
1656	295.377	-3.963000	2.008801
1660	296.168	-3.976000	2.033001
1664	296.7	-3.991000	2.017799
1668	297.434	-4.003000	2.041599
1672	298.052	-4.019000	2.028500
1676	298.714	-4.043000	2.005001
1680	299.411	-4.073000	2.009300
1684	299.995	-4.107000	2.016003
1688	300.763	-4.145000	2.012199
1692	301.295	-4.195000	1.989700
1696	302.09	-4.258000	1.995102
1700	302.622	-4.329000	1.979099
1704	303.351	-4.413000	1.923203
1708	303.967	-4.498000	1.915501
1712	304.632	-4.578000	1.927200
1716	305.327	-4.651000	1.946503
1720	305.925	-4.721000	1.956100
1724	306.679	-4.778000	1.979301
1728	307.21	-4.810000	1.991600
1732	307.973	-4.836000	1.936802
1736	308.514	-4.869000	1.885700
1740	309.25	-4.903000	1.885902
1744	309.887	-4.919000	1.944801
1748	310.523	-4.923000	1.969902
1752	311.237	-4.930000	1.932899
1756	311.816	-4.933000	1.946102
1760	312.583	-4.942000	1.981701
1764	313.106	-4.953000	1.969700
1768	313.89	-4.965000	1.923401
1772	314.456	-4.983000	1.914299
1776	315.19	-4.997000	1.901699
1780	315.853	-5.005000	1.894302
1784	316.503	-4.991000	1.895000
1788	317.254	-4.978000	1.923599
1792	317.795	-4.982000	1.922302
1796	318.564	-4.999000	1.878601
1800	319.1	-5.022000	1.833801
1804	319.871	-5.027000	1.824699
1808	320.427	-5.026000	1.807301
1812	321.14	-5.034000	1.771603
1816	321.771	-5.053000	1.774502
1820	322.408	-5.068000	1.778500
1824	323.142	-5.071000	1.777702
1828	323.668	-5.076000	1.774403
1832	324.426	-5.087000	1.777000
1836	324.962	-5.115000	1.742401
1840	325.717	-5.139000	1.750500
1844	326.293	-5.142000	1.753201
1848	327.003	-5.145000	1.733601
1852	327.676	-5.155000	1.703800
1856	328.294	-5.175000	1.660801
1860	329.048	-5.209000	1.636002
1864	329.598	-5.233000	1.611301
1868	330.367	-5.250000	1.586300
1872	330.904	-5.272000	1.565201
1876	331.652	-5.292000	1.542702
1880	332.237	-5.310000	1.539200
1884	332.92	-5.322000	1.545300
1888	333.598	-5.334000	1.555099
1892	334.205	-5.345000	1.557201
1896	334.945	-5.366000	1.535900
1900	335.477	-5.400000	1.503300
1904	336.251	-5.429000	1.483902
1908	336.78	-5.431000	1.447903
1912	337.521	-5.417000	1.432102
1916	338.124	-5.420000	1.424702
1920	338.793	-5.432000	1.443501
1924	339.493	-5.459000	1.442402
1928	340.091	-5.496000	1.436703
1932	340.833	-5.536000	1.428101
1936	341.386	-5.561000	1.407101
1940	342.163	-5.594000	1.380699
1944	342.705	-5.657000	1.384003
1948	343.43	-5.714000	1.392502
1952	344.067	-5.742000	1.407001
1956	344.723	-5.769000	1.408699
1960	345.423	-5.807000	1.389603
1964	346.008	-5.856000	1.370899
1968	346.748	-5.910000	1.364002
1972	347.27	-5.961000	1.351200
1976	348.024	-6.002000	1.351799
1980	348.595	-6.041000	1.348499
1984	349.3	-6.068000	1.370602
1988	349.932	-6.095000	1.367702
1992	350.551	-6.136000	1.326801
1996	351.284	-6.178000	1.300201
2000	351.836	-6.204000	1.313400
2004	352.573	-6.215000	1.304199
2008	353.128	-6.247000	1.264099
2012	353.897	-6.301000	1.240601
2016	354.485	-6.333000	1.245102
2020	355.199	-6.337000	1.244499
2024	355.86	-6.346000	1.245003
2028	356.485	-6.375000	1.232700
2032	357.244	-6.413000	1.232800
2036	357.78	-6.444000	1.217800
2040	358.559	-6.468000	1.208801
2044	359.099	-6.491000	1.177101
2048	359.829	-6.517000	1.138302
2052	360.427	-6.537000	1.139900
2056	361.097	-6.550000	1.127899
2060	361.792	-6.550000	1.119202
2064	362.369	-6.550000	1.102901
2068	363.139	-6.561000	1.082401
2072	363.658	-6.577000	1.046902
2076	364.41	-6.601000	1.029602
2080	364.98	-6.622000	1.032101
2084	365.711	-6.646000	1.009300
2088	366.341	-6.667000	0.984402
2092	366.998	-6.689000	0.996902
2096	367.729	-6.688000	1.017502
2100	368.298	-6.653000	0.998901
2104	369.068	-6.621000	0.981003
2108	369.622	-6.602000	0.983902
2112	370.382	-6.591000	0.977200
2116	370.981	-6.573000	0.969700
2120	371.684	-6.559000	0.980900
2124	372.335	-6.561000	0.956100
2128	372.979	-6.568000	0.929100
2132	373.699	-6.571000	0.926701
2136	374.234	-6.572001	0.903900
2140	375.002	-6.569000	0.886501
2144	375.527	-6.565001	0.868702
2148	376.282	-6.540000	0.853401
2152	376.883	-6.514000	0.845901
2156	377.553	-6.486001	0.850800
2160	378.248	-6.439000	0.824303
2164	378.828	-6.388000	0.813000
2168	379.579	-6.345000	0.828701
2172	380.114	-6.322001	0.805500
2176	380.882	-6.305000	0.797001
2180	381.422	-6.277000	0.777203
2184	382.162	-6.244000	0.763802
2188	382.768	-6.211000	0.762402
2192	383.422	-6.188000	0.755501
2196	384.164	-6.165000	0.749100
2200	384.731	-6.131001	0.728401
2204	385.505	-6.096000	0.706200
2208	386.041	-6.075000	0.718300
2212	386.796	-6.060000	0.722599
2216	387.368	-6.040000	0.711800
2220	388.071	-6.004000	0.726803
2224	388.698	-5.978000	0.755402
2228	389.325	-5.971000	0.726601
2232	390.084	-5.958000	0.706303
2236	390.616	-5.932000	0.709103
2240	391.361	-5.902000	0.702702
2244	391.891	-5.889000	0.718903
2248	392.637	-5.886000	0.746300
2252	393.216	-5.881000	0.747402
2256	393.88	-5.870000	0.730103
2260	394.543	-5.862000	0.721401
2264	395.135	-5.860000	0.700600
2268	395.876	-5.867000	0.690903
2272	396.403	-5.858000	0.700001
2276	397.178	-5.841000	0.715900
2280	397.716	-5.821000	0.700001
2284	398.442	-5.809000	0.695801
2288	399.064	-5.816000	0.707802
2292	399.725	-5.821000	0.708099
2296	400.426	-5.818000	0.725201
2300	401.002	-5.806000	0.767403
2304	401.743	-5.779000	0.746002
2308	402.252	-5.753000	0.699402
2312	403.021	-5.728000	0.720402
2316	403.571	-5.693000	0.739502
2320	404.279	-5.646000	0.747501
2324	404.905	-5.601000	0.729900
2328	405.519	-5.570000	0.732700
2332	406.241	-5.568000	0.739902
2336	406.806	-5.587000	0.718201
2340	407.535	-5.616000	0.719002
2344	408.041	-5.646000	0.751900
2348	408.811	-5.670000	0.760799
2352	409.377	-5.659000	0.735302
2356	410.081	-5.632000	0.749901
2360	410.722	-5.611000	0.739403
2364	411.338	-5.617000	0.735203
2368	412.08	-5.643000	0.761902
2372	412.64	-5.657000	0.745201
2376	413.392	-5.685000	0.709801
2380	413.936	-5.732000	0.724503
2384	414.677	-5.766000	0.720303
2388	415.261	-5.778000	0.697701
2392	415.938	-5.764000	0.690601
2396	416.623	-5.750000	0.738300
2400	417.206	-5.747000	0.792000
2404	417.955	-5.753000	0.791702
2408	418.478	-5.772000	0.779900
2412	419.236	-5.790000	0.754902
2416	419.774	-5.806000	0.727303
2420	420.492	-5.829000	0.736900
2424	421.094	-5.853000	0.771000
2428	421.759	-5.870000	0.767002
2432	422.441	-5.865000	0.730301
2436	423.019	-5.850000	0.746799
2440	423.762	-5.840000	0.771900
2444	424.298	-5.843000	0.757801
2448	425.06	-5.871000	0.748600
2452	425.619	-5.891000	0.758701
2456	426.345	-5.905000	0.740902
2460	426.993	-5.925000	0.707401
2464	427.623	-5.954000	0.748501
2468	428.353	-5.964000	0.741402
2472	428.915	-5.957000	0.707001
2476	429.65	-5.937000	0.732403
2480	430.165	-5.923000	0.733902
2484	430.931	-5.936000	0.745800
2488	431.497	-5.954000	0.768700
2492	432.192	-5.967000	0.763203
2496	432.834	-5.984000	0.765202
2500	433.446	-6.019000	0.781700
2504	434.21	-6.063000	0.784302
2508	434.741	-6.097000	0.731003
2512	435.493	-6.101000	0.721001
2516	436.025	-6.099000	0.757401
2520	436.771	-6.094000	0.769802
2524	437.347	-6.084000	0.755302
2528	438.028	-6.073000	0.762302
2532	438.702	-6.071000	0.750900
2536	439.336	-6.068000	0.722099
2540	440.087	-6.076000	0.730103
2544	440.611	-6.108000	0.758301
2548	441.385	-6.148000	0.750202
2552	441.941	-6.175000	0.705700
2556	442.661	-6.211000	0.709702
2560	443.311	-6.256001	0.737900
2564	443.949	-6.271000	0.714302
2568	444.654	-6.273000	0.722401
2572	445.199	-6.299000	0.737900
2576	445.951	-6.331000	0.713699
2580	446.482	-6.359000	0.692699
2584	447.215	-6.365000	0.725800
2588	447.799	-6.364000	0.719902
2592	448.487	-6.361001	0.668400
2596	449.148	-6.360000	0.666203
2600	449.738	-6.380000	0.711102
2604	450.493	-6.404000	0.751400
2608	451.028	-6.407001	0.757401
2612	451.772	-6.403000	0.765602
2616	452.345	-6.408000	0.776001
2620	453.066	-6.394001	0.761002
2624	453.686	-6.389000	0.730000
2628	454.341	-6.399000	0.726501
2632	455.079	-6.432000	0.741600
2636	455.634	-6.472000	0.756302
2640	456.403	-6.506001	0.754402
2644	456.938	-6.540000	0.758400
2648	457.698	-6.575000	0.772602
2652	458.302	-6.608000	0.804901
2656	458.973	-6.626000	0.799500
2660	459.651	-6.633000	0.785202
2664	460.251	-6.657001	0.781601
2668	460.981	-6.682000	0.786900
2672	461.531	-6.686000	0.795902
2676	462.279	-6.684000	0.800900
2680	462.826	-6.691000	0.796600
2684	463.539	-6.696000	0.757999
2688	464.164	-6.702000	0.756302
2692	464.774	-6.719000	0.789200
2696	465.516	-6.742000	0.801701
2700	466.068	-6.760000	0.814701
2704	466.804	-6.783000	0.818199
2708	467.352	-6.817000	0.820000
2712	468.083	-6.845000	0.805500
2716	468.66	-6.868001	0.770901
2720	469.351	-6.899000	0.761803
2724	470.036	-6.937000	0.742901
2728	470.637	-6.959000	0.727501
2732	471.407	-6.968000	0.762501
2736	471.933	-6.990000	0.806999
2740	472.717	-7.014000	0.824303
2744	473.295	-7.017000	0.819202
2748	473.983	-7.003000	0.805000
2752	474.625	-7.001000	0.782101
2756	475.249	-7.022000	0.809299
2760	475.977	-7.033000	0.807503
2764	476.528	-7.027000	0.779602
2768	477.279	-7.027000	0.735901
2772	477.806	-7.058001	0.727402
2776	478.544	-7.099000	0.734600
2780	479.157	-7.116000	0.758400
2784	479.805	-7.124001	0.790100
2788	480.523	-7.120000	0.797901
2792	481.076	-7.116000	0.804199
2796	481.819	-7.120000	0.781601
2800	482.342	-7.117000	0.781002
2804	483.073	-7.121000	0.808601
2808	483.642	-7.126000	0.792999
2812	484.325	-7.151000	0.790100
2816	484.964	-7.191000	0.818802
2820	485.582	-7.227000	0.836399
2824	486.32	-7.248000	0.830200
2828	486.84	-7.257000	0.796303
2832	487.603	-7.267000	0.783100
2836	488.153	-7.273000	0.743900
2840	488.878	-7.272000	0.751499
2844	489.508	-7.271000	0.804199
2848	490.161	-7.267000	0.825703
2852	490.866	-7.262001	0.826302
2856	491.438	-7.261000	0.814102
2860	492.185	-7.240000	0.794201
2864	492.689	-7.213000	0.772301
2868	493.425	-7.209000	0.764603
2872	494.007	-7.238000	0.744499
2876	494.676	-7.280000	0.716400
2880	495.376	-7.303000	0.732201
2884	495.937	-7.302001	0.745300
2888	496.695	-7.303000	0.753002
2892	497.205	-7.322001	0.754299
2896	497.957	-7.345000	0.751202
2900	498.523	-7.356000	0.748699
2904	499.226	-7.358000	0.749302
2908	499.873	-7.347000	0.739300
2912	500.485	-7.348001	0.741802
2916	501.225	-7.356000	0.766899
2920	501.761	-7.357000	0.760700
2924	502.52	-7.353000	0.720600
2928	503.077	-7.347000	0.713600
2932	503.802	-7.358000	0.765202
2936	504.459	-7.362000	0.784901
2940	505.104	-7.340000	0.738899
2944	505.833	-7.330000	0.728302
2948	506.391	-7.350000	0.736500
2952	507.164	-7.379000	0.726501
2956	507.692	-7.419000	0.766201
2960	508.416	-7.436000	0.778999
2964	509.065	-7.429000	0.780102
2968	509.677	-7.426000	0.767200
2972	510.38	-7.451000	0.752701
2976	510.957	-7.472000	0.758499
2980	511.693	-7.472000	0.755100
2984	512.233	-7.461000	0.734303
2988	512.973	-7.465000	0.757500
2992	513.578	-7.502000	0.758602
2996	514.243	-7.538001	0.734600
3000	514.899	-7.558001	0.752602
3004	515.482	-7.587000	0.774300
3008	516.273	-7.613000	0.767700
3012	516.79	-7.602000	0.762001
3016	517.546	-7.577000	0.770100
3020	518.147	-7.545001	0.802200
3024	518.829	-7.498000	0.812599
3028	519.486	-7.462000	0.811501
3032	520.109	-7.458000	0.813000
3036	520.861	-7.454000	0.813202
3040	521.38	-7.426000	0.823402
3044	522.151	-7.399000	0.826900
3048	522.717	-7.392000	0.810802
3052	523.428	-7.409000	0.795601
3056	524.089	-7.446001	0.798302
3060	524.698	-7.458000	0.828201
3064	525.423	-7.453001	0.815399
3068	525.976	-7.473001	0.810802
3072	526.711	-7.503000	0.806801
3076	527.249	-7.506001	0.783199
3080	527.963	-7.513000	0.781002
3084	528.576	-7.562000	0.792202
3088	529.23	-7.598001	0.778202
3092	529.931	-7.585001	0.777401
3096	530.467	-7.597001	0.805000
3100	531.248	-7.619000	0.807301
3104	531.771	-7.642000	0.798100
3108	532.488	-7.659000	0.768803
3112	533.119	-7.656000	0.745300
3116	533.75	-7.657001	0.746902
3120	534.435	-7.665000	0.760101
3124	535.029	-7.683001	0.778900
3128	535.768	-7.711000	0.786701
3132	536.291	-7.730000	0.794800
3136	537.047	-7.742001	0.771702
3140	537.608	-7.737000	0.788403
3144	538.301	-7.746000	0.795403
3148	539.002	-7.772000	0.797901
3152	539.596	-7.761000	0.797802
3156	540.354	-7.728000	0.795300
3160	540.887	-7.702000	0.762501
3164	541.63	-7.707000	0.753902
3168	542.212	-7.729001	0.799400
3172	542.913	-7.746000	0.824802
3176	543.556	-7.752000	0.825401
3180	544.167	-7.763000	0.812599
3184	544.91	-7.777000	0.796402
3188	545.427	-7.774000	0.786301
3192	546.2	-7.767000	0.795403
3196	546.727	-7.772000	0.778400
3200	547.437	-7.801001	0.781002
3204	548.082	-7.852000	0.809502
3208	548.709	-7.903000	0.793503
3212	549.431	-7.935000	0.791801
3216	549.978	-7.938000	0.780003
3220	550.709	-7.944000	0.746601
3224	551.246	-7.991000	0.744801
3228	551.971	-8.026000	0.773602
3232	552.576	-8.024000	0.798801
3236	553.256	-7.999001	0.810101
3240	553.953	-7.972001	0.797001
3244	554.517	-7.960001	0.797802
3248	555.282	-7.960001	0.792301
3252	555.795	-7.963000	0.770599
3256	556.542	-7.962000	0.770901
3260	557.141	-7.979001	0.788200
3264	557.831	-8.011001	0.789001
3268	558.541	-8.024000	0.775600
3272	559.116	-8.016001	0.766003
3276	559.88	-8.020000	0.772400
3280	560.378	-8.038000	0.785900
3284	561.122	-8.088000	0.802700
3288	561.7	-8.139000	0.803699
3292	562.38	-8.161000	0.757000
3296	563.048	-8.150001	0.730701
3300	563.623	-8.157001	0.741600
3304	564.36	-8.183001	0.768402
3308	564.88	-8.206000	0.776100
3312	565.639	-8.226001	0.780399
3316	566.226	-8.234000	0.787502
3320	566.895	-8.248000	0.766701
3324	567.556	-8.271001	0.765202
3328	568.165	-8.297000	0.790501
3332	568.889	-8.299001	0.784702
3336	569.395	-8.293000	0.750099
3340	570.141	-8.331000	0.727402
3344	570.703	-8.359000	0.709900
3348	571.401	-8.347000	0.727402
3352	572.036	-8.335000	0.754700
3356	572.666	-8.348001	0.777702
3360	573.394	-8.372001	0.784203
3364	573.94	-8.368000	0.782803
3368	574.696	-8.340000	0.785603
3372	575.241	-8.300000	0.767601
3376	575.939	-8.278001	0.759102
3380	576.583	-8.284000	0.782902
3384	577.209	-8.287001	0.781300
3388	577.924	-8.313001	0.748901
3392	578.488	-8.359000	0.693703
3396	579.245	-8.398001	0.642403
3400	579.77	-8.426001	0.667999
3404	580.5	-8.493000	0.723103
3408	581.098	-8.555000	0.752701
3412	581.73	-8.591001	0.769302
3416	582.456	-8.636001	0.783699
3420	582.995	-8.671000	0.780800
3424	583.744	-8.685000	0.760902
3428	584.273	-8.657001	0.726700
3432	585	-8.631001	0.698601
3436	585.604	-8.661000	0.700001
3440	586.245	-8.677000	0.716000
3444	586.939	-8.669001	0.724800
3448	587.527	-8.630000	0.719200
3452	588.257	-8.575001	0.718201
3456	588.759	-8.553000	0.746300
3460	589.488	-8.569000	0.750202
3464	590.083	-8.583000	0.741699
3468	590.748	-8.576000	0.748199
3472	591.432	-8.560000	0.747101
3476	592.008	-8.560000	0.731503
3480	592.736	-8.602000	0.730499
3484	593.285	-8.658000	0.744102
3488	594.019	-8.675000	0.729099
3492	594.615	-8.728001	0.729301
3496	595.255	-8.820001	0.722702
3500	595.951	-8.937000	0.726101
3504	596.544	-9.008000	0.722900
3508	597.288	-9.022000	0.722599
3512	597.82	-9.014001	0.717300
3516	598.538	-9.042001	0.713699
3520	599.108	-9.132000	0.701302
3524	599.818	-9.212001	0.691700
3528	600.474	-9.224000	0.699501
3532	601.05	-9.205001	0.705200
3536	601.793	-9.207001	0.721802
3540	602.313	-9.235001	0.699902
3544	603.07	-9.252001	0.691601
3548	603.63	-9.245001	0.712902
3552	604.306	-9.252001	0.688801
3556	604.956	-9.281000	0.693901
3560	605.595	-9.329000	0.724503
3564	606.318	-9.324000	0.742901
3568	606.849	-9.261001	0.700600
3572	607.582	-9.201000	0.653801
3576	608.152	-9.188001	0.661900
3580	608.881	-9.183001	0.659599
3584	609.51	-9.162001	0.672401
3588	610.119	-9.118000	0.684002
3592	610.862	-9.123000	0.663101
3596	611.367	-9.222000	0.653500
3600	612.14	-9.335000	0.640102
3604	612.709	-9.365001	0.650501
3608	613.399	-9.337001	0.664200
3612	614.063	-9.279000	0.687901
3616	614.685	-9.280001	0.709499
3620	615.418	-9.321000	0.682102
3624	615.981	-9.341001	0.653900
3628	616.724	-9.350000	0.659500
3632	617.278	-9.350000	0.668900
3636	618.014	-9.356001	0.670799
3640	618.662	-9.356001	0.672302
3644	619.282	-9.354000	0.681602
3648	620.017	-9.352000	0.687401
3652	620.539	-9.370001	0.669201
3656	621.298	-9.428000	0.665802
3660	621.88	-9.470000	0.676300
3664	622.583	-9.423000	0.651302
3668	623.211	-9.339001	0.623901
3672	623.846	-9.297001	0.604099
3676	624.589	-9.275001	0.618999
3680	625.13	-9.257000	0.622101
3684	625.888	-9.240001	0.641899
3688	626.419	-9.204000	0.658401
3692	627.119	-9.237000	0.684002
3696	627.763	-9.324000	0.646702
3700	628.399	-9.363001	0.615902
3704	629.12	-9.361000	0.611301
3708	629.677	-9.370001	0.627701
3712	630.407	-9.432000	0.643402
3716	630.959	-9.527000	0.637699
3720	631.663	-9.619000	0.654701
3724	632.299	-9.648001	0.646099
3728	632.901	-9.614000	0.620800
3732	633.618	-9.639001	0.631100
3736	634.174	-9.722000	0.638599
3740	634.938	-9.783000	0.648701
3744	635.501	-9.838000	0.650299
3748	636.19	-9.862000	0.637802
3752	636.842	-9.875000	0.625099
3756	637.481	-9.908001	0.635101
3760	638.208	-9.927000	0.670502
3764	638.753	-9.922001	0.664303
3768	639.506	-9.929001	0.663799
3772	640.021	-9.963000	0.660400
3776	640.738	-10.011	0.660099
3780	641.341	-9.993000	0.673203
3784	641.961	-9.944000	0.680302
3788	642.69	-9.916000	0.657101
3792	643.216	-9.950001	0.653900
3796	643.968	-10.02	0.627300
3800	644.519	-10.037	0.612400
3804	645.196	-10.07	0.647400
3808	645.815	-10.143	0.648300
3812	646.444	-10.19	0.645702
3816	647.154	-10.23	0.661800
3820	647.71	-10.257	0.660099
3824	648.429	-10.25	0.660999
3828	648.939	-10.218	0.656300
3832	649.664	-10.225	0.638302
3836	650.292	-10.272	0.634399
3840	650.917	-10.298	0.653999
3844	651.667	-10.31	0.659599
3848	652.19	-10.332	0.631203
3852	652.911	-10.343	0.622402
3856	653.473	-10.343	0.651402
3860	654.182	-10.301	0.643902
3864	654.788	-10.276	0.619602
3868	655.441	-10.318	0.616802
3872	656.146	-10.387	0.635101
3876	656.702	-10.431	0.643803
3880	657.424	-10.476	0.626801
3884	657.938	-10.579	0.603703
3888	658.679	-10.706	0.597301
3892	659.288	-10.719	0.582401
3896	659.922	-10.68	0.612900
3900	660.667	-10.669	0.608200
3904	661.186	-10.667	0.591202
3908	661.913	-10.692	0.596001
3912	662.467	-10.756	0.623802
3916	663.18	-10.802	0.629101
3920	663.79	-10.828	0.648102
3924	664.422	-10.797	0.664303
3928	665.151	-10.724	0.661701
3932	665.722	-10.688	0.651100
3936	666.459	-10.643	0.629902
3940	667.011	-10.6	0.636700
3944	667.705	-10.607	0.592201
3948	668.328	-10.634	0.528301
3952	668.979	-10.661	0.565903
3956	669.7	-10.628	0.593502
3960	670.247	-10.55	0.629101
3964	670.957	-10.533	0.619602
3968	671.518	-10.617	0.580101
3972	672.193	-10.717	0.586002
3976	672.806	-10.791	0.584000
3980	673.426	-10.86	0.565002
3984	674.129	-10.898	0.569099
3988	674.645	-10.992	0.574501
3992	675.375	-11.061	0.586201
3996	675.94	-11.075	0.614300
4000	676.612	-11.111	0.600300
4004	677.264	-11.193	0.561501
4008	677.892	-11.303	0.539001
4012	678.634	-11.351	0.539001
4016	679.165	-11.33	0.531799
4020	679.91	-11.258	0.536400
4024	680.463	-11.199	0.536602
4028	681.183	-11.201	0.564201
4032	681.838	-11.158	0.565502
4036	682.45	-11.082	0.557602
4040	683.177	-11.064	0.563000
4044	683.688	-11.116	0.552200
4048	684.434	-11.203	0.517601
4052	684.997	-11.231	0.498802
4056	685.672	-11.231	0.522400
4060	686.311	-11.276	0.545502
4064	686.894	-11.383	0.535500
4068	687.611	-11.443	0.522800
4072	688.143	-11.424	0.536900
4076	688.901	-11.432	0.562702
4080	689.471	-11.46	0.551903
4084	690.127	-11.527	0.535500
4088	690.827	-11.597	0.530502
4092	691.422	-11.62	0.524002
4096	692.131	-11.566	0.534901
4100	692.645	-11.522	0.575500
4104	693.362	-11.588	0.582901
4108	693.968	-11.714	0.565102
4112	694.632	-11.8	0.550201
4116	695.338	-11.764	0.546303
4120	695.864	-11.706	0.571800
4124	696.6	-11.72	0.558300
4128	697.149	-11.7	0.524502
4132	697.882	-11.665	0.531200
4136	698.511	-11.638	0.548500
4140	699.111	-11.648	0.569901
4144	699.846	-11.74	0.599602
4148	700.413	-11.792	0.603203
4152	701.135	-11.703	0.581200
4156	701.701	-11.635	0.570202
4160	702.339	-11.628	0.563900
4164	702.991	-11.682	0.579002
4168	703.62	-11.786	0.600700
4172	704.319	-11.845	0.567303
4176	704.87	-11.861	0.551102
4180	705.614	-11.867	0.563301
4184	706.2	-11.881	0.570801
4188	706.873	-11.843	0.553001
4192	707.562	-11.721	0.528099
4196	708.123	-11.629	0.540901
4200	708.859	-11.67	0.554802
4204	709.401	-11.813	0.572800
4208	710.096	-11.915	0.601902
4212	710.745	-11.946	0.620502
4216	711.361	-11.897	0.616302
4220	712.024	-11.883	0.602303
4224	712.573	-11.948	0.585201
4228	713.334	-11.98	0.579002
4232	713.892	-11.964	0.564301
4236	714.557	-11.979	0.578201
4240	715.205	-12.032	0.580799
4244	715.845	-12.026	0.583702
4248	716.561	-11.929	0.578800
4252	717.12	-11.818	0.567600
4256	717.836	-11.701	0.544601
4260	718.431	-11.61	0.534801
4264	719.115	-11.562	0.531403
4268	719.786	-11.562	0.583099
4272	720.326	-11.605	0.596302
4276	721.108	-11.645	0.598900
4280	721.613	-11.682	0.574699
4284	722.333	-11.731	0.563301
4288	722.962	-11.765	0.585899
4292	723.561	-11.765	0.591202
4296	724.273	-11.828	0.592800
4300	724.814	-11.967	0.613800
4304	725.553	-12.082	0.613300
4308	726.13	-12.083	0.604202
4312	726.799	-12.033	0.638203
4316	727.457	-11.973	0.643200
4320	728.052	-11.982	0.629200
4324	728.763	-12.056	0.643501
4328	729.302	-12.128	0.646603
4332	729.977	-12.225	0.648701
4336	730.561	-12.361	0.621601
4340	731.227	-12.493	0.573502
4344	731.933	-12.497	0.587299
4348	732.461	-12.418	0.598301
4352	733.18	-12.383	0.631203
4356	733.745	-12.477	0.656403
4360	734.48	-12.656	0.664700
4364	735.127	-12.758	0.659702
4368	735.73	-12.698	0.666500
4372	736.451	-12.59	0.640900
4376	736.96	-12.503	0.565502
4380	737.736	-12.511	0.585800
4384	738.323	-12.526	0.617802
4388	739.008	-12.492	0.647301
4392	739.682	-12.51	0.644402
4396	740.234	-12.553	0.591900
4400	740.97	-12.593	0.569901
4404	741.52	-12.621	0.587700
4408	742.21	-12.619	0.619400
4412	742.823	-12.667	0.650402
4416	743.439	-12.805	0.643501
4420	744.17	-13.002	0.629101
4424	744.727	-13.139	0.659203
4428	745.447	-13.143	0.645401
4432	746.014	-13.084	0.647900
4436	746.66	-13.101	0.664902
4440	747.373	-13.138	0.632702
4444	747.958	-13.142	0.642700
4448	748.689	-13.135	0.649601
4452	749.187	-13.151	0.659401
4456	749.907	-13.253	0.674801
4460	750.543	-13.352	0.673203
4464	751.191	-13.375	0.691402
4468	751.915	-13.344	0.709499
4472	752.396	-13.27	0.662502
4476	753.14	-13.297	0.670700
4480	753.706	-13.446	0.694901
4484	754.373	-13.471	0.676601
4488	755.066	-13.416	0.667900
4492	755.617	-13.361	0.655502
4496	756.332	-13.322	0.612301
4500	756.892	-13.349	0.651402
4504	757.62	-13.375	0.656403
4508	758.237	-13.438	0.620800
4512	758.835	-13.561	0.620300
4516	759.613	-13.647	0.628601
4520	760.162	-13.56	0.586300
4524	760.9	-13.39	0.584301
4528	761.47	-13.167	0.589600
4532	762.097	-13.082	0.634201
4536	762.806	-13.188	0.648701
4540	763.405	-13.307	0.672401
4544	764.149	-13.349	0.650299
4548	764.713	-13.265	0.601002
4552	765.409	-13.202	0.626701
4556	766.037	-13.257	0.626499
4560	766.696	-13.205	0.558102
4564	767.41	-13.083	0.558102
4568	767.914	-13.052	0.571201
4572	768.645	-13.196	0.579002
4576	769.194	-13.488	0.605400
4580	769.913	-13.729	0.605400
4584	770.571	-13.807	0.596302
4588	771.149	-13.735	0.602802
4592	771.863	-13.689	0.586102
4596	772.443	-13.646	0.540901
4600	773.174	-13.503	0.545502
4604	773.784	-13.349	0.575001
4608	774.401	-13.29	0.585701
4612	775.152	-13.321	0.567501
4616	775.717	-13.338	0.519600
4620	776.42	-13.285	0.513599
4624	777.018	-13.237	0.541000
4628	777.632	-13.206	0.589100
4632	778.321	-13.267	0.598701
4636	778.908	-13.305	0.561901
4640	779.623	-13.255	0.584602
4644	780.21	-13.21	0.615902
4648	780.87	-13.2	0.638500
4652	781.481	-13.27	0.621601
4656	782.147	-13.366	0.597599
4660	782.829	-13.41	0.607403
4664	783.377	-13.412	0.593903
4668	784.095	-13.519	0.582600
4672	784.681	-13.645	0.607903
4676	785.354	-13.669	0.643101
4680	786.035	-13.657	0.667500
4684	786.578	-13.601	0.654701
4688	787.296	-13.606	0.622101
4692	787.842	-13.757	0.653202
4696	788.524	-13.957	0.682102
4700	789.166	-14.078	0.665901
4704	789.784	-14.057	0.638599
4708	790.521	-13.998	0.653000
4712	791.042	-13.922	0.659100
4716	791.759	-13.851	0.623699
4720	792.359	-13.81	0.563900
4724	793.001	-13.758	0.439102
4728	793.715	-13.703	0.114799
4732	794.243	-13.748	-0.104599
4736	794.998	-13.771	-0.223400
4740	795.578	-13.707	-0.288898
4744	796.205	-13.608	-0.322498
4748	796.866	-13.625	-0.338398
4752	797.439	-13.712	-0.346500
4756	798.183	-13.761	-0.350597
4760	798.717	-13.766	-0.352898
4764	799.394	-13.8	-0.354298
4768	799.995	-13.916	-0.354900
4772	800.676	-14.04	-0.355499
4776	801.396	-14.04	-0.355801
4780	801.896	-13.952	-0.356098
4784	802.571	-13.922	-0.356998
4788	803.184	-14.019	-0.356998
4792	803.883	-14.12	-0.357800
4796	804.579	-14.1	-0.357998
4800	805.122	-13.994	-0.357998
4804	805.86	-13.914	-0.358299
4808	806.387	-13.993	-0.358398
4812	807.096	-14.098	-0.359200
4816	807.734	-14.103	-0.360100
4820	808.345	-14.043	-0.359798
4824	809.035	-13.986	-0.358200
4828	809.563	-14.045	-0.356998
4832	810.311	-14.123	-0.357498
4836	810.88	-14.104	-0.357800
4840	811.515	-14.084	-0.357998
4844	812.234	-14.117	-0.358299
4848	812.785	-14.198	-0.358200
4852	813.524	-14.205	-0.358799
4856	814.092	-14.123	-0.360798
4860	814.813	-14.055	-0.375298
4864	815.489	-13.981	-0.397999
4868	816.036	-13.956	-0.390301
4872	816.782	-13.952	-0.382698
4876	817.326	-13.922	-0.378899
4880	818.038	-13.9	-0.376999
4884	818.654	-13.913	-0.376698
4888	819.3	-13.92	-0.376198
4892	820.022	-13.898	-0.376099
4896	820.564	-13.856	-0.376198
4900	821.306	-13.841	-0.376099
4904	821.866	-13.873	-0.376198
4908	822.58	-13.899	-0.375999
4912	823.251	-13.867	-0.375900
4916	823.83	-13.839	-0.375797
4920	824.555	-13.842	-0.376198
4924	825.098	-13.85	-0.376698
4928	825.827	-13.855	-0.376198
4932	826.415	-13.853	-0.376698
4936	827.041	-13.867	-0.376999
4940	827.757	-13.893	-0.376999
4944	828.315	-13.93	-0.377399
4948	829.06	-13.983	-0.377399
4952	829.564	-14.037	-0.377998
4956	830.286	-14.068	-0.378201
4960	830.953	-14.087	-0.377598
4964	831.523	-14.117	-0.378098
4968	832.256	-14.102	-0.378098
4972	832.8	-14.077	-0.378300
4976	833.473	-14.087	-0.378700
4980	834.128	-14.109	-0.378799
4984	834.759	-14.11	-0.378799
4988	835.461	-14.079	-0.378799
4992	836.006	-14.057	-0.378998
4996	836.698	-14.048	-0.379398
5000	837.247	-14.058	-0.379200
5004	837.935	-14.101	-0.379498
5008	838.599	-14.178	-0.379200
5012	839.171	-14.244	-0.379601
5016	839.889	-14.306	-0.379997
5020	840.425	-14.397	-0.380100
5024	841.099	-14.489	-0.380199
5028	841.751	-14.519	-0.379898
5032	842.384	-14.491	-0.379997
5036	843.09	-14.459	-0.380398
5040	843.618	-14.463	-0.380299
5044	844.341	-14.477	-0.380501
5048	844.934	-14.462	-0.380501
5052	845.615	-14.426	-0.380501
5056	846.273	-14.393	-0.380798
5060	846.845	-14.429	-0.380798
5064	847.62	-14.519	-0.381298
5068	848.147	-14.558	-0.381397
5072	848.851	-14.586	-0.381199
5076	849.459	-14.627	-0.381901
5080	850.092	-14.729	-0.381500
5084	850.811	-14.875	-0.381599
5088	851.346	-14.917	-0.381500
5092	852.079	-14.871	-0.381001
5096	852.659	-14.789	-0.381699
5100	853.321	-14.764	-0.381699
5104	854.042	-14.822	-0.381901
5108	854.588	-14.842	-0.382298
5112	855.323	-14.823	-0.382298
5116	855.819	-14.851	-0.382797
5120	856.527	-15.012	-0.382797
5124	857.183	-15.207	-0.382797
5128	857.78	-15.293	-0.383198
5132	858.501	-15.301	-0.382999
5136	859.04	-15.336	-0.383499
5140	859.761	-15.424	-0.383400
5144	860.368	-15.493	-0.383499
5148	861.028	-15.475	-0.383801
5152	861.726	-15.34	-0.383999
5156	862.27	-15.236	-0.384399
5160	863	-15.239	-0.383999
5164	863.58	-15.259	-0.384098
5168	864.266	-15.209	-0.384399
5172	864.882	-15.113	-0.384098
5176	865.508	-15.099	-0.384800
5180	866.203	-15.202	-0.384998
5184	866.754	-15.305	-0.385300
5188	867.471	-15.309	-0.385498
5192	868.063	-15.237	-0.385300
5196	868.69	-15.216	-0.385998
5200	869.406	-15.331	-0.386299
5204	869.979	-15.433	-0.385998
5208	870.729	-15.402	-0.385899
5212	871.256	-15.333	-0.385597
5216	871.9	-15.375	-0.386299
5220	872.598	-15.531	-0.386497
5224	873.173	-15.609	-0.386101
5228	873.922	-15.56	-0.386299
5232	874.483	-15.507	-0.386299
5236	875.188	-15.511	-0.386600
5240	875.792	-15.586	-0.387100
5244	876.429	-15.59	-0.387398
5248	877.167	-15.533	-0.387699
5252	877.72	-15.498	-0.387299
5256	878.418	-15.466	-0.388000
5260	879.034	-15.456	-0.388298
5264	879.697	-15.448	-0.388100
5268	880.351	-15.401	-0.388397
5272	880.923	-15.393	-0.388100
5276	881.666	-15.483	-0.388397
5280	882.228	-15.627	-0.388298
5284	882.893	-15.688	-0.388599
5288	883.547	-15.679	-0.389297
5292	884.138	-15.692	-0.389400
5296	884.84	-15.754	-0.389698
5300	885.421	-15.777	-0.389900
5304	886.211	-15.722	-0.389900
5308	886.765	-15.648	-0.389999
5312	887.415	-15.641	-0.389797
5316	888.118	-15.756	-0.390198
5320	888.723	-15.894	-0.390499
5324	889.42	-15.903	-0.390099
5328	889.983	-15.862	-0.390697
5332	890.707	-15.826	-0.390598
5336	891.325	-15.805	-0.390900
5340	891.907	-15.847	-0.390999
5344	892.622	-15.873	-0.390697
5348	893.167	-15.872	-0.391197
5352	893.878	-15.899	-0.390999
5356	894.537	-16.003	-0.391098
5360	895.141	-16.076	-0.391399
5364	895.901	-16.052	-0.391300
5368	896.429	-15.974	-0.391197
5372	897.128	-15.917	-0.391098
5376	897.732	-15.971	-0.391598
5380	898.375	-16.053	-0.391800
5384	899.051	-16.049	-0.391701
5388	899.647	-16.003	-0.392300
5392	900.361	-16.039	-0.392300
5396	900.858	-16.17	-0.391998
5400	901.57	-16.29	-0.392399
5401	901.782	-16.304	-0.392200