File: TGA & DTA Data Files/TGA&DTA_PU_Sample2.txt
Time(sec)	Temp(C)	DTA(uV)	TGA(mg)
0.000000	28.3351	-0.745000	2.190300
4.000000	28.2768	-0.740000	2.190300
8.000000	28.5199	-0.738000	2.186897
12	28.5336	-0.732000	2.188297
16	28.7405	-0.728000	2.190098
20	28.9307	-0.728000	2.188400
24	29.1872	-0.733000	2.181198
28	29.4643	-0.751000	2.177799
32	29.7612	-0.781000	2.182400
36	30.1902	-0.814000	2.180298
40	30.5149	-0.852000	2.174400
44	31.0666	-0.889000	2.171299
48	31.35	-0.919000	2.177299
52	31.9495	-0.939000	2.184700
56	32.2555	-0.958000	2.173199
60	32.918	-0.977000	2.167599
64	33.2353	-0.988000	2.174698
68	33.9314	-0.998000	2.173100
72	34.2956	-0.999000	2.173100
76	35.0088	-0.983000	2.177498
80	35.4647	-0.973000	2.176098
84	36.1746	-0.971000	2.166100
88	36.7023	-0.982000	2.159100
92	37.4006	-0.990000	2.160599
96	37.9981	-0.989000	2.160797
100	38.61	-0.979000	2.156998
104	39.2917	-0.952000	2.151100
108	39.8405	-0.932000	2.146297
112	40.5815	-0.925000	2.144501
116	41.0811	-0.923000	2.139099
120	41.8559	-0.921000	2.132900
124	42.3108	-0.904000	2.142097
128	43.1271	-0.890000	2.148300
132	43.6077	-0.880000	2.147900
136	44.4638	-0.853000	2.149899
140	45.0021	-0.829000	2.147999
144	45.7638	-0.816000	2.150398
148	46.3404	-0.811000	2.153500
152	47.0787	-0.808000	2.142597
156	47.6947	-0.803000	2.130798
160	48.3924	-0.796000	2.117699
164	49.1058	-0.778000	2.113098
168	49.7016	-0.771000	2.120998
172	50.4654	-0.774000	2.132099
176	51.0102	-0.779000	2.129398
180	51.8213	-0.777000	2.134197
184	52.2986	-0.769000	2.132999
188	53.1785	-0.763000	2.132599
192	53.7054	-0.752000	2.132599
196	54.5155	-0.735000	2.139599
200	55.0667	-0.717000	2.137100
204	55.8342	-0.697000	2.146099
208	56.4249	-0.684000	2.148098
212	57.1663	-0.677000	2.137897
216	57.8089	-0.663000	2.127300
220	58.4712	-0.641000	2.139999
224	59.1923	-0.620000	2.152397
228	59.7898	-0.618000	2.153099
232	60.5593	-0.629000	2.146900
236	61.0971	-0.634000	2.146500
240	61.9009	-0.638000	2.157497
244	62.404	-0.652000	2.162998
248	63.2337	-0.669000	2.162197
252	63.7695	-0.684000	2.155499
256	64.533	-0.692000	2.155800
260	65.1111	-0.682000	2.162300
264	65.8312	-0.670000	2.168900
268	66.4559	-0.674000	2.176701
272	67.1248	-0.696000	2.183098
276	67.8061	-0.716000	2.190498
280	68.4192	-0.712000	2.181900
284	69.2085	-0.694000	2.174599
288	69.7129	-0.687000	2.178799
292	70.5399	-0.695000	2.182198
296	71.0364	-0.710000	2.188797
300	71.8834	-0.725000	2.192898
304	72.3992	-0.746000	2.188900
308	73.2329	-0.772000	2.193199
312	73.7586	-0.787000	2.201500
316	74.4815	-0.777000	2.202400
320	75.1224	-0.763000	2.204597
324	75.7673	-0.764000	2.200798
328	76.474	-0.786000	2.199398
332	77.0828	-0.806000	2.209400
336	77.823	-0.810000	2.201401
340	78.3769	-0.806000	2.195198
344	79.1952	-0.807000	2.196301
348	79.6871	-0.833000	2.193501
352	80.5153	-0.897000	2.192398
356	81.0424	-0.944000	2.193798
360	81.8044	-0.940000	2.185299
364	82.3845	-0.939000	2.179897
368	83.1192	-0.935000	2.184200
372	83.7189	-0.940000	2.187397
376	84.3703	-0.962000	2.186600
380	85.0991	-0.982000	2.185200
384	85.6647	-0.997000	2.187599
388	86.4334	-1.003000	2.185799
392	86.9393	-1.012000	2.181099
396	87.7205	-1.027000	2.170898
400	88.2348	-1.047000	2.157600
404	89.0471	-1.049000	2.151299
408	89.5786	-1.039000	2.154999
412	90.36	-1.031000	2.169300
416	90.9574	-1.031000	2.175301
420	91.6665	-1.034000	2.165398
424	92.3301	-1.046000	2.166100
428	92.931	-1.051000	2.175301
432	93.6523	-1.052000	2.179897
436	94.204	-1.057000	2.176498
440	94.9826	-1.065000	2.162800
444	95.4699	-1.065000	2.160797
448	96.2693	-1.058000	2.165897
452	96.7523	-1.056000	2.162197
456	97.5211	-1.056000	2.159298
460	98.0819	-1.062000	2.159397
464	98.8101	-1.073000	2.162598
468	99.4377	-1.078000	2.172298
472	100.131	-1.073000	2.175301
476	100.828	-1.062000	2.175098
480	101.43	-1.053000	2.177700
484	102.21	-1.048000	2.179199
488	102.719	-1.069000	2.179100
492	103.481	-1.115000	2.174000
496	104.006	-1.155000	2.175598
500	104.77	-1.178000	2.171497
504	105.294	-1.179000	2.177998
508	106.058	-1.172000	2.172199
512	106.63	-1.164000	2.169197
516	107.315	-1.165000	2.166100
520	107.995	-1.171000	2.161198
524	108.622	-1.182000	2.167297
528	109.372	-1.183000	2.174099
532	109.957	-1.168000	2.176800
536	110.736	-1.156000	2.174999
540	111.258	-1.155000	2.180901
544	112.042	-1.168000	2.175098
548	112.533	-1.189000	2.169197
552	113.305	-1.217000	2.168697
556	113.841	-1.254000	2.171997
560	114.554	-1.294000	2.176098
564	115.177	-1.307000	2.184898
568	115.852	-1.286000	2.193398
572	116.516	-1.254000	2.195198
576	117.107	-1.248000	2.190899
580	117.865	-1.269000	2.176899
584	118.367	-1.294000	2.171200
588	119.186	-1.304000	2.175198
592	119.694	-1.303000	2.176998
596	120.502	-1.299000	2.181797
600	121.053	-1.293000	2.192898
604	121.802	-1.280000	2.194599
608	122.367	-1.273000	2.191200
612	123.057	-1.303000	2.190498
616	123.705	-1.371000	2.194599
620	124.303	-1.421000	2.191200
624	125.061	-1.431000	2.185600
628	125.593	-1.446000	2.187298
632	126.347	-1.470000	2.188000
636	126.881	-1.488000	2.188099
640	127.677	-1.483000	2.190598
644	128.187	-1.458000	2.192898
648	128.99	-1.456000	2.190899
652	129.562	-1.444000	2.192398
656	130.315	-1.420000	2.190197
660	130.963	-1.416000	2.190300
664	131.577	-1.436000	2.189697
668	132.301	-1.456000	2.179501
672	132.865	-1.463000	2.178699
676	133.623	-1.461000	2.170700
680	134.15	-1.458000	2.174000
684	134.941	-1.465000	2.183399
688	135.438	-1.475000	2.189400
692	136.227	-1.467000	2.192799
696	136.77	-1.467000	2.192101
700	137.488	-1.483000	2.186501
704	138.112	-1.522000	2.182999
708	138.814	-1.586000	2.193398
712	139.517	-1.641000	2.199497
716	140.134	-1.655000	2.199200
720	140.916	-1.634000	2.201401
724	141.423	-1.596000	2.203800
728	142.207	-1.563000	2.203400
732	142.707	-1.559000	2.198498
736	143.485	-1.583000	2.201000
740	144.027	-1.584000	2.212700
744	144.779	-1.569000	2.216400
748	145.341	-1.569000	2.208599
752	146.058	-1.583000	2.200298
756	146.691	-1.607000	2.208401
760	147.329	-1.632000	2.202999
764	148.085	-1.658000	2.200001
768	148.652	-1.699000	2.218998
772	149.443	-1.746000	2.232201
776	149.974	-1.753000	2.229401
780	150.782	-1.730000	2.213497
784	151.303	-1.711000	2.210999
788	152.069	-1.716000	2.221199
792	152.628	-1.739000	2.224499
796	153.348	-1.754000	2.225800
800	153.975	-1.741000	2.224098
804	154.628	-1.724000	2.225998
808	155.349	-1.717000	2.222000
812	155.913	-1.734000	2.212700
816	156.67	-1.755000	2.211800
820	157.216	-1.767000	2.223297
824	157.989	-1.772000	2.232998
828	158.537	-1.782000	2.230400
832	159.324	-1.795000	2.223297
836	159.907	-1.808000	2.214699
840	160.652	-1.818000	2.216698
844	161.268	-1.829000	2.225098
848	161.919	-1.848000	2.236401
852	162.602	-1.866000	2.233898
856	163.216	-1.875000	2.226498
860	163.952	-1.893000	2.232899
864	164.49	-1.915000	2.228500
868	165.273	-1.925000	2.227497
872	165.766	-1.929000	2.233601
876	166.569	-1.937000	2.232399
880	167.112	-1.952000	2.234299
884	167.866	-1.947000	2.225800
888	168.476	-1.932000	2.226299
892	169.206	-1.928000	2.235600
896	169.852	-1.934000	2.218399
900	170.517	-1.936000	2.206100
904	171.236	-1.938000	2.212299
908	171.788	-1.941000	2.222401
912	172.577	-1.946000	2.225899
916	173.085	-1.950000	2.233498
920	173.867	-1.955000	2.236599
924	174.391	-1.964000	2.239998
928	175.156	-1.965000	2.236797
932	175.708	-1.952000	2.228199
936	176.462	-1.943000	2.225098
940	177.039	-1.944000	2.230801
944	177.748	-1.952000	2.224197
948	178.459	-1.958000	2.230598
952	179.077	-1.980000	2.238300
956	179.852	-2.016000	2.232597
960	180.434	-2.043000	2.217800
964	181.2	-2.053000	2.223698
968	181.688	-2.063000	2.211300
972	182.509	-2.075000	2.222900
976	183.006	-2.080000	2.232597
980	183.777	-2.068000	2.230801
984	184.339	-2.052000	2.236000
988	185.06	-2.042000	2.240997
992	185.671	-2.039000	2.232998
996	186.371	-2.035000	2.233200
1000	187.046	-2.030000	2.237297
1004	187.682	-2.025000	2.239098
1008	188.435	-2.020000	2.240799
1012	189.018	-2.012000	2.238800
1016	189.832	-1.999000	2.236500
1020	190.35	-1.988000	2.238499
1024	191.132	-1.986000	2.241100
1028	191.653	-1.992000	2.250198
1032	192.42	-2.015000	2.263397
1036	192.977	-2.064000	2.265301
1040	193.729	-2.131000	2.249798
1044	194.331	-2.180000	2.238197
1048	194.985	-2.185000	2.239098
1052	195.695	-2.169000	2.245598
1056	196.266	-2.148000	2.239399
1060	197.047	-2.138000	2.245399
1064	197.614	-2.149000	2.252998
1068	198.404	-2.162000	2.256397
1072	198.928	-2.147000	2.258598
1076	199.738	-2.124000	2.254997
1080	200.273	-2.109000	2.249599
1084	201.009	-2.106000	2.252899
1088	201.63	-2.128000	2.262501
1092	202.275	-2.170000	2.276398
1096	202.963	-2.216000	2.282700
1100	203.577	-2.279000	2.277500
1104	204.316	-2.351000	2.262897
1108	204.849	-2.372000	2.260300
1112	205.641	-2.345000	2.269199
1116	206.127	-2.313000	2.282398
1120	206.928	-2.289000	2.296398
1124	207.499	-2.282000	2.293301
1128	208.249	-2.267000	2.281898
1132	208.888	-2.243000	2.291397
1136	209.582	-2.223000	2.298298
1140	210.257	-2.238000	2.287899
1144	210.862	-2.289000	2.279598
1148	211.606	-2.337000	2.301399
1152	212.155	-2.361000	2.303898
1156	212.929	-2.354000	2.289600
1160	213.426	-2.357000	2.285198
1164	214.216	-2.365000	2.277699
1168	214.753	-2.363000	2.271797
1172	215.477	-2.357000	2.273197
1176	216.089	-2.343000	2.279301
1180	216.78	-2.349000	2.287701
1184	217.439	-2.390000	2.279999
1188	218.079	-2.439000	2.285999
1192	218.852	-2.484000	2.287197
1196	219.4	-2.487000	2.277699
1200	220.2	-2.472000	2.281399
1204	220.722	-2.463000	2.289299
1208	221.484	-2.467000	2.289200
1212	222.025	-2.483000	2.288300
1216	222.772	-2.483000	2.292999
1220	223.334	-2.475000	2.284000
1224	224.039	-2.473000	2.286800
1228	224.713	-2.503000	2.289700
1232	225.307	-2.542000	2.289299
1236	226.039	-2.566000	2.298199
1240	226.593	-2.579000	2.303799
1244	227.35	-2.587000	2.305397
1248	227.868	-2.604000	2.313797
1252	228.678	-2.615000	2.313499
1256	229.23	-2.592000	2.304501
1260	229.986	-2.571000	2.298698
1264	230.615	-2.577000	2.296398
1268	231.298	-2.643000	2.290897
1272	231.995	-2.724000	2.291100
1276	232.593	-2.750000	2.302998
1280	233.346	-2.749000	2.299698
1284	233.877	-2.743000	2.297298
1288	234.654	-2.737000	2.302898
1292	235.163	-2.749000	2.303497
1296	235.958	-2.746000	2.292797
1300	236.498	-2.728000	2.309597
1304	237.203	-2.728000	2.319901
1308	237.85	-2.748000	2.311600
1312	238.509	-2.782000	2.299000
1316	239.227	-2.839000	2.289398
1320	239.836	-2.902000	2.291599
1324	240.588	-2.940000	2.293598
1328	241.139	-2.948000	2.294197
1332	241.927	-2.944000	2.296600
1336	242.449	-2.951000	2.299999
1340	243.205	-2.940000	2.290699
1344	243.797	-2.913000	2.279999
1348	244.485	-2.901000	2.282299
1352	245.126	-2.911000	2.278900
1356	245.783	-2.951000	2.261997
1360	246.491	-3.011000	2.253201
1364	247.061	-3.042000	2.257999
1368	247.814	-3.036000	2.263100
1372	248.327	-3.029000	2.268398
1376	249.108	-3.026000	2.273098
1380	249.661	-3.017000	2.262398
1384	250.396	-3.012000	2.251698
1388	250.977	-3.021000	2.251099
1392	251.695	-3.047000	2.254398
1396	252.358	-3.076000	2.253799
1400	252.987	-3.105000	2.257298
1404	253.729	-3.132000	2.246799
1408	254.266	-3.163000	2.231899
1412	255.038	-3.199000	2.230900
1416	255.56	-3.232000	2.239700
1420	256.323	-3.261000	2.245998
1424	256.869	-3.280000	2.246998
1428	257.594	-3.302000	2.226601
1432	258.168	-3.330000	2.219997
1436	258.862	-3.354000	2.231697
1440	259.528	-3.380000	2.235699
1444	260.121	-3.406000	2.226997
1448	260.894	-3.425000	2.225700
1452	261.445	-3.446000	2.211998
1456	262.207	-3.472000	2.189301
1460	262.77	-3.501000	2.172600
1464	263.555	-3.530000	2.177399
1468	264.109	-3.557000	2.187099
1472	264.843	-3.576000	2.182697
1476	265.448	-3.597000	2.181099
1480	266.117	-3.623000	2.173798
1484	266.801	-3.652000	2.161999
1488	267.394	-3.685000	2.156998
1492	268.133	-3.718000	2.163498
1496	268.701	-3.756000	2.169598
1500	269.448	-3.794000	2.172199
1504	269.973	-3.830000	2.163597
1508	270.735	-3.865000	2.140499
1512	271.289	-3.892000	2.123398
1516	272.015	-3.922000	2.112999
1520	272.652	-3.948000	2.118698
1524	273.303	-3.975000	2.112499
1528	274.029	-4.011000	2.095699
1532	274.632	-4.047000	2.088398
1536	275.376	-4.081000	2.083797
1540	275.917	-4.117000	2.076000
1544	276.68	-4.158000	2.057598
1548	277.189	-4.202000	2.043900
1552	277.966	-4.241000	2.028900
1556	278.536	-4.283000	2.016300
1560	279.215	-4.326000	2.012100
1564	279.863	-4.365000	2.027699
1568	280.496	-4.404000	2.013599
1572	281.216	-4.446000	1.990097
1576	281.766	-4.491000	1.987000
1580	282.53	-4.548000	1.990700
1584	283.03	-4.615000	1.984497
1588	283.826	-4.678000	1.972099
1592	284.375	-4.740000	1.968998
1596	285.122	-4.800000	1.963398
1600	285.738	-4.858000	1.934998
1604	286.398	-4.911000	1.913300
1608	287.06	-4.954000	1.909798
1612	287.693	-4.990000	1.905701
1616	288.396	-5.026000	1.893700
1620	288.935	-5.057000	1.878300
1624	289.726	-5.087000	1.862400
1628	290.213	-5.113000	1.862801
1632	290.988	-5.131000	1.854599
1636	291.536	-5.142000	1.848198
1640	292.247	-5.150000	1.851200
1644	292.858	-5.155000	1.847198
1648	293.56	-5.162000	1.836899
1652	294.234	-5.167000	1.837399
1656	294.844	-5.169000	1.829800
1660	295.623	-5.180000	1.811501
1664	296.162	-5.195000	1.785698
1668	296.953	-5.206000	1.773499
1672	297.486	-5.211000	1.775497
1676	298.225	-5.207000	1.767097
1680	298.837	-5.194000	1.755299
1684	299.523	-5.179000	1.743599
1688	300.163	-5.156000	1.738899
1692	300.84	-5.129000	1.756599
1696	301.531	-5.098000	1.749397
1700	302.128	-5.065000	1.722900
1704	302.91	-5.035000	1.721100
1708	303.418	-4.981000	1.730801
1712	304.181	-4.907000	1.730099
1716	304.751	-4.854000	1.728798
1720	305.508	-4.817000	1.732201
1724	306.098	-4.792000	1.743999
1728	306.841	-4.798000	1.723900
1732	307.484	-4.849000	1.716400
1736	308.135	-4.877000	1.709599
1740	308.883	-4.865000	1.717098
1744	309.461	-4.830000	1.723000
1748	310.204	-4.778000	1.732998
1752	310.76	-4.725000	1.737698
1756	311.517	-4.679000	1.732300
1760	312.05	-4.651000	1.707897
1764	312.822	-4.631000	1.702198
1768	313.384	-4.595000	1.705601
1772	314.113	-4.556000	1.693100
1776	314.754	-4.524000	1.687901
1780	315.403	-4.497000	1.693897
1784	316.154	-4.479000	1.699497
1788	316.738	-4.504000	1.693398
1792	317.501	-4.547000	1.685600
1796	318.07	-4.572000	1.679501
1800	318.843	-4.580000	1.683701
1804	319.387	-4.566000	1.673500
1808	320.143	-4.564000	1.654800
1812	320.707	-4.581000	1.648098
1816	321.404	-4.595000	1.635998
1820	322.114	-4.592000	1.639698
1824	322.706	-4.564000	1.641598
1828	323.418	-4.530000	1.642597
1832	323.993	-4.509000	1.636200
1836	324.742	-4.510000	1.619999
1840	325.252	-4.512000	1.609898
1844	326.037	-4.518000	1.594700
1848	326.572	-4.544000	1.589500
1852	327.291	-4.582000	1.588898
1856	327.929	-4.653000	1.585999
1860	328.597	-4.716000	1.588200
1864	329.312	-4.725000	1.595398
1868	329.904	-4.705000	1.598900
1872	330.632	-4.692000	1.589199
1876	331.167	-4.701000	1.583000
1880	331.959	-4.712000	1.581299
1884	332.476	-4.714000	1.586498
1888	333.227	-4.719000	1.572201
1892	333.802	-4.749000	1.555798
1896	334.49	-4.791000	1.542000
1900	335.167	-4.821000	1.534000
1904	335.785	-4.833000	1.527298
1908	336.507	-4.852000	1.519798
1912	337.073	-4.875000	1.513599
1916	337.818	-4.908000	1.503201
1920	338.358	-4.940000	1.491798
1924	339.156	-4.971000	1.497799
1928	339.697	-5.006000	1.493999
1932	340.419	-5.033000	1.484699
1936	341.087	-5.050000	1.469700
1940	341.74	-5.051000	1.463100
1944	342.429	-5.062000	1.444199
1948	343.009	-5.091000	1.430298
1952	343.741	-5.110000	1.408199
1956	344.29	-5.117000	1.382797
1960	345.049	-5.125000	1.381500
1964	345.574	-5.129000	1.376301
1968	346.327	-5.141000	1.370499
1972	346.911	-5.153000	1.354401
1976	347.575	-5.173000	1.346600
1980	348.253	-5.191000	1.347000
1984	348.845	-5.205000	1.335098
1988	349.569	-5.227000	1.315300
1992	350.134	-5.253000	1.302597
1996	350.909	-5.283000	1.299099
2000	351.448	-5.305000	1.286499
2004	352.21	-5.316000	1.276199
2008	352.768	-5.341000	1.273098
2012	353.489	-5.363000	1.258999
2016	354.147	-5.376000	1.240997
2020	354.778	-5.400000	1.236599
2024	355.486	-5.422000	1.216698
2028	356.039	-5.452000	1.201599
2032	356.775	-5.496000	1.204201
2036	357.324	-5.545000	1.214298
2040	358.087	-5.581000	1.203400
2044	358.631	-5.606000	1.177097
2048	359.336	-5.623000	1.173100
2052	359.958	-5.645000	1.160900
2056	360.609	-5.681000	1.152397
2060	361.318	-5.706000	1.149597
2064	361.879	-5.727000	1.132797
2068	362.626	-5.758000	1.133301
2072	363.175	-5.797000	1.119297
2076	363.956	-5.833000	1.101398
2080	364.527	-5.861000	1.107399
2084	365.27	-5.883000	1.092899
2088	365.88	-5.892000	1.082001
2092	366.529	-5.904000	1.095898
2096	367.257	-5.921000	1.076797
2100	367.829	-5.933000	1.050499
2104	368.559	-5.941000	1.043098
2108	369.096	-5.962000	1.044399
2112	369.87	-5.980000	1.025398
2116	370.413	-5.988000	1.017399
2120	371.149	-5.991000	1.008698
2124	371.738	-5.997000	0.992298
2128	372.403	-6.007000	0.979198
2132	373.087	-6.020000	0.983799
2136	373.68	-6.026000	0.995899
2140	374.439	-6.028000	0.990700
2144	374.949	-6.036000	0.973198
2148	375.702	-6.052001	0.969200
2152	376.267	-6.076000	0.963398
2156	377.008	-6.085001	0.955700
2160	377.618	-6.094000	0.947498
2164	378.308	-6.094000	0.922600
2168	378.987	-6.098001	0.920097
2172	379.586	-6.112000	0.921997
2176	380.335	-6.119000	0.914497
2180	380.871	-6.129000	0.920200
2184	381.628	-6.127000	0.923199
2188	382.157	-6.120000	0.917099
2192	382.909	-6.099000	0.922501
2196	383.468	-6.055000	0.923901
2200	384.155	-6.007000	0.924900
2204	384.829	-5.982000	0.922699
2208	385.427	-5.986000	0.904999
2212	386.152	-6.018000	0.881100
2216	386.711	-6.065000	0.851997
2220	387.473	-6.101000	0.853199
2224	387.984	-6.116000	0.865200
2228	388.731	-6.116000	0.858299
2232	389.342	-6.106000	0.863800
2236	390.042	-6.096000	0.854698
2240	390.703	-6.089000	0.855499
2244	391.323	-6.103000	0.846298
2248	392.055	-6.146000	0.826500
2252	392.599	-6.210001	0.820000
2256	393.365	-6.267000	0.801998
2260	393.88	-6.302001	0.784298
2264	394.624	-6.320000	0.778797
2268	395.213	-6.312000	0.754898
2272	395.891	-6.271000	0.743099
2276	396.528	-6.229000	0.768799
2280	397.153	-6.217000	0.807198
2284	397.869	-6.240000	0.808800
2288	398.422	-6.296000	0.782997
2292	399.164	-6.372000	0.768700
2296	399.696	-6.418000	0.768898
2300	400.441	-6.431000	0.756901
2304	401.002	-6.432000	0.765598
2308	401.726	-6.424000	0.774200
2312	402.378	-6.404000	0.768799
2316	403.002	-6.383000	0.764297
2320	403.747	-6.371000	0.778000
2324	404.311	-6.380000	0.772598
2328	405.048	-6.430000	0.746700
2332	405.589	-6.489000	0.732098
2336	406.341	-6.503000	0.717598
2340	406.893	-6.495000	0.727299
2344	407.627	-6.491000	0.731300
2348	408.248	-6.466000	0.726601
2352	408.869	-6.409000	0.695099
2356	409.602	-6.341000	0.681000
2360	410.171	-6.314000	0.676899
2364	410.922	-6.333000	0.659901
2368	411.453	-6.373000	0.651699
2372	412.2	-6.426000	0.655197
2376	412.775	-6.444000	0.665398
2380	413.493	-6.444000	0.689198
2384	414.122	-6.438000	0.692898
2388	414.77	-6.407001	0.689697
2392	415.516	-6.354000	0.663700
2396	416.077	-6.308000	0.634598
2400	416.857	-6.277000	0.641800
2404	417.394	-6.261000	0.641899
2408	418.15	-6.256001	0.625099
2412	418.729	-6.270000	0.624298
2416	419.43	-6.295000	0.612198
2420	420.051	-6.308000	0.628899
2424	420.692	-6.327000	0.660999
2428	421.405	-6.331000	0.671600
2432	421.962	-6.283000	0.684299
2436	422.716	-6.194000	0.682800
2440	423.229	-6.085001	0.668400
2444	423.982	-5.970000	0.650700
2448	424.546	-5.877000	0.651501
2452	425.246	-5.835001	0.649399
2456	425.867	-5.823000	0.631901
2460	426.496	-5.843000	0.627197
2464	427.21	-5.879000	0.622799
2468	427.787	-5.895000	0.635098
2472	428.555	-5.892000	0.660297
2476	429.056	-5.879000	0.665798
2480	429.839	-5.859000	0.662399
2484	430.403	-5.833000	0.658100
2488	431.117	-5.815000	0.665501
2492	431.764	-5.812000	0.664299
2496	432.371	-5.837000	0.637600
2500	433.078	-5.903000	0.645699
2504	433.655	-5.994000	0.674297
2508	434.396	-6.075000	0.676598
2512	434.913	-6.127000	0.667500
2516	435.673	-6.168000	0.663498
2520	436.242	-6.210001	0.650898
2524	436.92	-6.236000	0.649998
2528	437.564	-6.228000	0.661098
2532	438.189	-6.191000	0.643997
2536	438.897	-6.158000	0.674698
2540	439.456	-6.131001	0.659901
2544	440.215	-6.110000	0.628300
2548	440.743	-6.100000	0.636101
2552	441.518	-6.105000	0.652397
2556	442.087	-6.146000	0.662300
2560	442.794	-6.228000	0.661900
2564	443.466	-6.326000	0.648098
2568	444.086	-6.380000	0.657101
2572	444.794	-6.403000	0.638100
2576	445.358	-6.414001	0.626801
2580	446.11	-6.418000	0.649597
2584	446.609	-6.412000	0.665298
2588	447.368	-6.397000	0.677498
2592	447.938	-6.381001	0.651501
2596	448.625	-6.355000	0.643398
2600	449.266	-6.319000	0.644299
2604	449.895	-6.272000	0.640800
2608	450.611	-6.241000	0.664997
2612	451.167	-6.244000	0.686501
2616	451.942	-6.280000	0.670700
2620	452.47	-6.340000	0.641701
2624	453.229	-6.413000	0.649097
2628	453.801	-6.492000	0.673698
2632	454.512	-6.571000	0.689400
2636	455.158	-6.626000	0.686398
2640	455.809	-6.661000	0.672298
2644	456.55	-6.667000	0.649799
2648	457.094	-6.630000	0.631500
2652	457.857	-6.598001	0.656799
2656	458.391	-6.584000	0.655899
2660	459.135	-6.559000	0.637100
2664	459.723	-6.503000	0.638500
2668	460.423	-6.442000	0.660599
2672	461.047	-6.422000	0.684399
2676	461.679	-6.453000	0.678497
2680	462.405	-6.503000	0.669598
2684	462.957	-6.567000	0.671497
2688	463.709	-6.630000	0.667297
2692	464.252	-6.675000	0.649799
2696	464.984	-6.728000	0.653797
2700	465.546	-6.802001	0.650799
2704	466.265	-6.870000	0.639500
2708	466.902	-6.929000	0.636497
2712	467.543	-6.977000	0.628799
2716	468.274	-7.007000	0.624100
2720	468.836	-7.017000	0.632198
2724	469.593	-7.010000	0.630898
2728	470.136	-6.984000	0.622398
2732	470.871	-6.951000	0.648800
2736	471.442	-6.931000	0.669498
2740	472.147	-6.909000	0.673901
2744	472.78	-6.882000	0.668900
2748	473.425	-6.846000	0.653000
2752	474.133	-6.807000	0.648998
2756	474.669	-6.791000	0.649899
2760	475.438	-6.800000	0.643200
2764	475.961	-6.816000	0.640301
2768	476.697	-6.847000	0.664299
2772	477.268	-6.892000	0.669498
2776	477.958	-6.950000	0.656998
2780	478.587	-7.015000	0.651600
2784	479.247	-7.055000	0.624798
2788	479.961	-7.090000	0.624699
2792	480.512	-7.138000	0.651398
2796	481.29	-7.192000	0.646198
2800	481.82	-7.245000	0.639000
2804	482.574	-7.260000	0.619499
2808	483.154	-7.227000	0.604599
2812	483.846	-7.180000	0.622799
2816	484.47	-7.145000	0.642300
2820	485.115	-7.106000	0.635799
2824	485.812	-7.061000	0.619198
2828	486.354	-7.038000	0.628300
2832	487.112	-7.037000	0.631500
2836	487.616	-7.037000	0.629799
2840	488.368	-7.003000	0.614998
2844	488.917	-6.965000	0.608097
2848	489.599	-6.972000	0.604797
2852	490.252	-7.015000	0.614899
2856	490.872	-7.073000	0.615601
2860	491.585	-7.126000	0.623699
2864	492.156	-7.160000	0.618599
2868	492.895	-7.195000	0.595100
2872	493.417	-7.255000	0.587097
2876	494.185	-7.324000	0.600098
2880	494.756	-7.389000	0.592499
2884	495.455	-7.436000	0.599598
2888	496.103	-7.447001	0.599499
2892	496.715	-7.421000	0.598698
2896	497.436	-7.405000	0.627098
2900	497.999	-7.387001	0.640598
2904	498.73	-7.340000	0.642899
2908	499.268	-7.289001	0.650299
2912	500.026	-7.243001	0.659397
2916	500.564	-7.199000	0.673599
2920	501.284	-7.200000	0.680000
2924	501.92	-7.227000	0.669197
2928	502.53	-7.270000	0.653797
2932	503.246	-7.348001	0.623798
2936	503.819	-7.434000	0.614098
2940	504.55	-7.512001	0.639797
2944	505.088	-7.571001	0.664200
2948	505.843	-7.579000	0.696697
2952	506.405	-7.556000	0.667297
2956	507.125	-7.527000	0.643700
2960	507.77	-7.500000	0.640697
2964	508.386	-7.456000	0.645000
2968	509.145	-7.407001	0.638500
2972	509.685	-7.396000	0.638500
2976	510.426	-7.432000	0.637897
2980	510.984	-7.494000	0.620598
2984	511.721	-7.554000	0.601997
2988	512.307	-7.610000	0.597198
2992	512.997	-7.681000	0.627899
2996	513.658	-7.762001	0.635899
3000	514.279	-7.813000	0.625401
3004	515.009	-7.806000	0.652500
3008	515.542	-7.768001	0.659397
3012	516.31	-7.751000	0.676701
3016	516.833	-7.718000	0.709801
3020	517.545	-7.646000	0.729099
3024	518.152	-7.626000	0.713200
3028	518.809	-7.668000	0.674000
3032	519.505	-7.755001	0.644600
3036	520.093	-7.857000	0.634701
3040	520.842	-7.920001	0.631199
3044	521.367	-7.956000	0.611500
3048	522.137	-8.002001	0.616600
3052	522.692	-8.052000	0.664299
3056	523.411	-8.060000	0.682400
3060	524.005	-8.021000	0.694698
3064	524.672	-7.979001	0.701099
3068	525.349	-7.943000	0.694199
3072	525.925	-7.892000	0.669197
3076	526.684	-7.834001	0.672100
3080	527.214	-7.814001	0.662399
3084	527.944	-7.822001	0.661999
3088	528.51	-7.887001	0.667000
3092	529.215	-8.004001	0.677200
3096	529.837	-8.086000	0.684200
3100	530.474	-8.138000	0.672600
3104	531.154	-8.191000	0.651299
3108	531.719	-8.259001	0.634701
3112	532.463	-8.332001	0.645397
3116	532.991	-8.393001	0.671497
3120	533.75	-8.395000	0.663799
3124	534.324	-8.361000	0.633598
3128	535	-8.327001	0.609798
3132	535.684	-8.312000	0.609600
3136	536.288	-8.284000	0.583099
3140	537.032	-8.242001	0.582500
3144	537.586	-8.259001	0.620197
3148	538.335	-8.284000	0.619698
3152	538.88	-8.251000	0.594898
3156	539.61	-8.207001	0.614300
3160	540.203	-8.188001	0.616398
3164	540.889	-8.202001	0.614799
3168	541.564	-8.259001	0.645500
3172	542.146	-8.347000	0.637199
3176	542.901	-8.405001	0.640598
3180	543.42	-8.439000	0.648098
3184	544.151	-8.506001	0.632298
3188	544.701	-8.619000	0.610001
3192	545.413	-8.712001	0.621899
3196	546.048	-8.707001	0.638298
3200	546.68	-8.635000	0.634098
3204	547.387	-8.565001	0.642399
3208	547.947	-8.520000	0.664398
3212	548.708	-8.492001	0.653900
3216	549.22	-8.441000	0.625298
3220	549.983	-8.398001	0.635700
3224	550.572	-8.392000	0.656898
3228	551.261	-8.429001	0.655598
3232	551.953	-8.501000	0.658699
3236	552.568	-8.564000	0.647697
3240	553.292	-8.589001	0.643700
3244	553.849	-8.649000	0.648499
3248	554.586	-8.729000	0.639400
3252	555.133	-8.775001	0.635899
3256	555.863	-8.807000	0.661999
3260	556.459	-8.843000	0.662498
3264	557.123	-8.848001	0.627499
3268	557.808	-8.832001	0.650898
3272	558.386	-8.801001	0.627197
3276	559.144	-8.764001	0.608997
3280	559.658	-8.719001	0.608200
3284	560.403	-8.704000	0.622898
3288	560.964	-8.723001	0.604500
3292	561.654	-8.745001	0.605598
3296	562.292	-8.754001	0.604000
3300	562.914	-8.724000	0.598698
3304	563.614	-8.715000	0.626598
3308	564.187	-8.734000	0.643497
3312	564.949	-8.769000	0.653500
3316	565.485	-8.813001	0.651699
3320	566.238	-8.868000	0.640598
3324	566.842	-8.938001	0.632900
3328	567.504	-9.020000	0.636299
3332	568.19	-9.088000	0.652199
3336	568.781	-9.130000	0.652798
3340	569.498	-9.188001	0.654697
3344	570.019	-9.257000	0.659599
3348	570.756	-9.271001	0.640198
3352	571.321	-9.238001	0.652100
3356	572.044	-9.190001	0.672699
3360	572.655	-9.141001	0.663597
3364	573.304	-9.101001	0.628700
3368	574.002	-9.086000	0.622799
3372	574.555	-9.086000	0.634899
3376	575.304	-9.040000	0.609798
3380	575.823	-8.992001	0.599098
3384	576.551	-9.021001	0.628300
3388	577.153	-9.093000	0.669399
3392	577.836	-9.167001	0.663799
3396	578.48	-9.240001	0.640598
3400	579.088	-9.329000	0.622700
3404	579.821	-9.418000	0.620197
3408	580.364	-9.496000	0.617500
3412	581.107	-9.535001	0.585098
3416	581.643	-9.553000	0.563999
3420	582.37	-9.570001	0.561600
3424	582.989	-9.562000	0.590698
3428	583.638	-9.525001	0.631599
3432	584.31	-9.485001	0.649799
3436	584.887	-9.448001	0.646000
3440	585.635	-9.462001	0.660099
3444	586.15	-9.516001	0.634598
3448	586.901	-9.522000	0.624599
3452	587.457	-9.453000	0.641399
3456	588.146	-9.384001	0.650200
3460	588.784	-9.411000	0.648701
3464	589.407	-9.483001	0.630100
3468	590.127	-9.541000	0.623199
3472	590.678	-9.637000	0.632198
3476	591.392	-9.740001	0.647301
3480	591.931	-9.820001	0.650799
3484	592.664	-9.874001	0.645100
3488	593.255	-9.909000	0.635899
3492	593.939	-9.957001	0.641499
3496	594.589	-9.994000	0.647697
3500	595.203	-9.992001	0.626400
3504	595.942	-9.956000	0.615700
3508	596.494	-9.904000	0.651600
3512	597.224	-9.868000	0.679897
3516	597.783	-9.870001	0.687599
3520	598.509	-9.879001	0.685398
3524	599.113	-9.827001	0.641899
3528	599.801	-9.770000	0.611797
3532	600.496	-9.758000	0.610298
3536	601.04	-9.811001	0.620598
3540	601.801	-9.932000	0.589600
3544	602.33	-10.031	0.589798
3548	603.056	-10.108	0.595600
3552	603.616	-10.192	0.583298
3556	604.324	-10.295	0.595898
3560	604.959	-10.341	0.614700
3564	605.599	-10.304	0.615097
3568	606.318	-10.235	0.615700
3572	606.863	-10.168	0.623100
3576	607.637	-10.121	0.612999
3580	608.15	-10.081	0.603699
3584	608.89	-10.032	0.600498
3588	609.498	-10.034	0.574398
3592	610.144	-10.079	0.565201
3596	610.845	-10.173	0.560600
3600	611.449	-10.309	0.576797
3604	612.186	-10.399	0.569000
3608	612.735	-10.451	0.538898
3612	613.472	-10.518	0.547600
3616	614.043	-10.629	0.591900
3620	614.783	-10.701	0.597198
3624	615.431	-10.666	0.585499
3628	616.044	-10.601	0.592499
3632	616.795	-10.563	0.601097
3636	617.317	-10.549	0.605698
3640	618.059	-10.528	0.579300
3644	618.638	-10.475	0.554501
3648	619.337	-10.474	0.543598
3652	619.968	-10.536	0.556797
3656	620.615	-10.653	0.592899
3660	621.338	-10.787	0.591297
3664	621.903	-10.836	0.566998
3668	622.627	-10.876	0.554100
3672	623.159	-10.98	0.549599
3676	623.892	-11.084	0.535099
3680	624.498	-11.099	0.537598
3684	625.16	-11.041	0.547699
3688	625.847	-10.955	0.575100
3692	626.432	-10.888	0.579800
3696	627.201	-10.807	0.545799
3700	627.757	-10.742	0.530701
3704	628.486	-10.747	0.530098
3708	629.063	-10.845	0.534901
3712	629.787	-11.026	0.546600
3716	630.443	-11.167	0.538898
3720	631.088	-11.228	0.524700
3724	631.821	-11.245	0.518700
3728	632.372	-11.28	0.507797
3732	633.08	-11.375	0.508999
3736	633.644	-11.453	0.520699
3740	634.361	-11.445	0.511799
3744	634.983	-11.358	0.536999
3748	635.637	-11.275	0.535000
3752	636.326	-11.253	0.525799
3756	636.883	-11.212	0.519299
3760	637.658	-11.16	0.525101
3764	638.18	-11.168	0.524899
3768	638.91	-11.23	0.497601
3772	639.499	-11.381	0.494999
3776	640.17	-11.48	0.503899
3780	640.869	-11.509	0.510300
3784	641.455	-11.535	0.506199
3788	642.152	-11.553	0.492897
3792	642.683	-11.577	0.487099
3796	643.434	-11.554	0.482201
3800	643.987	-11.472	0.472900
3804	644.704	-11.396	0.495598
3808	645.338	-11.366	0.508801
3812	645.927	-11.381	0.497898
3816	646.699	-11.358	0.491600
3820	647.233	-11.304	0.485298
3824	647.986	-11.294	0.493099
3828	648.558	-11.364	0.480099
3832	649.267	-11.501	0.468498
3836	649.915	-11.622	0.474800
3840	650.526	-11.637	0.479797
3844	651.255	-11.643	0.485397
3848	651.788	-11.69	0.480999
3852	652.541	-11.742	0.468800
3856	653.105	-11.679	0.457798
3860	653.833	-11.541	0.466499
3864	654.424	-11.433	0.492100
3868	655.072	-11.379	0.500698
3872	655.77	-11.307	0.486500
3876	656.321	-11.31	0.481098
3880	657.063	-11.412	0.485100
3884	657.601	-11.578	0.489700
3888	658.324	-11.748	0.490498
3892	658.94	-11.813	0.490097
3896	659.601	-11.834	0.478897
3900	660.271	-11.799	0.486698
3904	660.841	-11.701	0.481800
3908	661.573	-11.589	0.469498
3912	662.125	-11.546	0.466900
3916	662.875	-11.542	0.473198
3920	663.453	-11.468	0.480198
3924	664.141	-11.416	0.487598
3928	664.77	-11.492	0.488598
3932	665.411	-11.662	0.476799
3936	666.17	-11.815	0.470497
3940	666.708	-11.941	0.483097
3944	667.456	-11.974	0.483799
3948	668.02	-11.928	0.478100
3952	668.711	-11.873	0.484200
3956	669.379	-11.809	0.498699
3960	669.978	-11.738	0.483997
3964	670.697	-11.656	0.472797
3968	671.222	-11.626	0.466999
3972	671.947	-11.717	0.451000
3976	672.478	-11.853	0.459000
3980	673.206	-12.008	0.453999
3984	673.782	-12.088	0.451698
3988	674.417	-12.143	0.466400
3992	675.143	-12.203	0.465698
3996	675.684	-12.242	0.467098
4000	676.428	-12.173	0.445599
4004	676.958	-12.05	0.438801
4008	677.675	-11.984	0.480400
4012	678.286	-11.966	0.506397
4016	678.928	-11.897	0.502098
4020	679.618	-11.85	0.484798
4024	680.203	-11.879	0.466400
4028	680.916	-11.987	0.471699
4032	681.466	-12.101	0.481800
4036	682.218	-12.162	0.477600
4040	682.803	-12.203	0.484398
4044	683.469	-12.23	0.496597
4048	684.157	-12.212	0.510899
4052	684.757	-12.145	0.501900
4056	685.529	-12.061	0.505798
4060	686.046	-11.951	0.480400
4064	686.778	-11.856	0.462200
4068	687.343	-11.871	0.473099
4072	688.068	-11.942	0.494198
4076	688.728	-12.054	0.485100
4080	689.312	-12.205	0.467899
4084	690.028	-12.284	0.471699
4088	690.55	-12.335	0.474697
4092	691.306	-12.382	0.478798
4096	691.866	-12.354	0.487099
4100	692.543	-12.276	0.497398
4104	693.17	-12.269	0.534599
4108	693.821	-12.281	0.546700
4112	694.554	-12.157	0.502598
4116	695.094	-12.046	0.499798
4120	695.831	-12.061	0.511101
4124	696.365	-12.178	0.522999
4128	697.104	-12.281	0.490799
4132	697.716	-12.317	0.479298
4136	698.363	-12.355	0.475597
4140	699.055	-12.423	0.489998
4144	699.592	-12.431	0.495098
4148	700.357	-12.429	0.508598
4152	700.897	-12.431	0.522301
4156	701.6	-12.387	0.529499
4160	702.183	-12.336	0.502197
4164	702.882	-12.405	0.489700
4168	703.581	-12.545	0.497898
4172	704.169	-12.62	0.494598
4176	704.916	-12.599	0.478199
4180	705.381	-12.608	0.466801
4184	706.13	-12.732	0.476997
4188	706.732	-12.856	0.481197
4192	707.396	-12.835	0.477898
4196	708.063	-12.759	0.496998
4200	708.633	-12.738	0.503899
4204	709.368	-12.761	0.501400
4208	709.907	-12.699	0.487499
4212	710.647	-12.578	0.452801
4216	711.226	-12.512	0.449299
4220	711.899	-12.555	0.489700
4224	712.565	-12.746	0.509300
4228	713.172	-12.916	0.501198
4232	713.871	-12.957	0.495399
4236	714.415	-12.968	0.518200
4240	715.168	-12.97	0.526699
4244	715.715	-12.915	0.532997
4248	716.422	-12.81	0.537598
4252	717.056	-12.729	0.529400
4256	717.669	-12.694	0.534599
4260	718.39	-12.608	0.537899
4264	718.945	-12.541	0.521099
4268	719.674	-12.565	0.518898
4272	720.243	-12.663	0.540199
4276	720.935	-12.8	0.549099
4280	721.577	-12.95	0.527100
4284	722.231	-13.114	0.532997
4288	722.934	-13.145	0.516399
4292	723.497	-13.053	0.506199
4296	724.226	-12.967	0.479401
4300	724.761	-12.943	0.452999
4304	725.487	-12.934	0.483700
4308	726.106	-12.926	0.524498
4312	726.745	-12.983	0.543499
4316	727.439	-13.09	0.558498
4320	727.99	-13.218	0.557800
4324	728.751	-13.355	0.543900
4328	729.334	-13.37	0.544701
4332	730.011	-13.19	0.549599
4336	730.602	-13.034	0.551300
4340	731.016	-13.013	0.533298
4344	731.942	-12.998	0.519299
4348	732.504	-12.975	0.530399
4352	733.23	-13.042	0.541298
4356	733.755	-13.21	0.547699
4360	734.445	-13.379	0.538399
4364	735.048	-13.531	0.525799
4368	735.695	-13.653	0.532299
4372	736.412	-13.604	0.557800
4376	736.928	-13.473	0.561600
4380	737.669	-13.397	0.547298
4384	738.227	-13.281	0.515697
4388	738.962	-13.195	0.505898
4392	739.562	-13.204	0.512299
4396	740.182	-13.311	0.521099
4400	740.929	-13.465	0.537399
4404	741.487	-13.598	0.547100
4408	742.24	-13.618	0.557899
4412	742.778	-13.544	0.558098
4416	743.467	-13.501	0.558399
4420	744.083	-13.493	0.537498
4424	744.72	-13.411	0.529697
4428	745.455	-13.337	0.524300
4432	746.009	-13.359	0.531998
4436	746.751	-13.474	0.540600
4440	747.287	-13.588	0.530399
4444	747.999	-13.649	0.517498
4448	748.606	-13.656	0.520901
4452	749.23	-13.573	0.543198
4456	749.978	-13.465	0.550198
4460	750.475	-13.338	0.532200
4464	751.223	-13.207	0.512798
4468	751.806	-13.163	0.527798
4472	752.492	-13.229	0.529598
4476	753.117	-13.362	0.520000
4480	753.735	-13.448	0.518997
4484	754.485	-13.505	0.520599
4488	755.004	-13.545	0.522301
4492	755.688	-13.494	0.535500
4496	756.239	-13.473	0.555099
4500	756.944	-13.486	0.605999
4504	757.597	-13.45	0.612698
4508	758.188	-13.453	0.601799
4512	758.918	-13.571	0.582100
4516	759.432	-13.736	0.545700
4520	760.167	-13.821	0.522400
4524	760.743	-13.864	0.507900
4528	761.436	-13.873	0.516701
4532	762.068	-13.794	0.518700
4536	762.58	-13.692	0.514698
4540	763.23	-13.559	0.538700
4544	763.915	-13.392	0.561001
4548	764.524	-13.317	0.555199
4552	765.248	-13.408	0.553600
4556	765.796	-13.547	0.547298
4560	766.521	-13.652	0.568600
4564	767.098	-13.711	0.578999
4568	767.758	-13.699	0.569599
4572	768.473	-13.592	0.539398
4576	769.006	-13.514	0.523899
4580	769.71	-13.422	0.531799
4584	770.285	-13.369	0.541901
4588	770.971	-13.451	0.536598
4592	771.579	-13.642	0.547398
4596	772.225	-13.801	0.552700
4600	772.965	-13.863	0.537300
4604	773.48	-13.806	0.548000
4608	774.213	-13.664	0.556400
4612	774.733	-13.603	0.546398
4616	775.42	-13.601	0.533100
4620	776.103	-13.618	0.525299
4624	776.665	-13.669	0.505699
4628	777.403	-13.768	0.528099
4632	777.907	-13.873	0.540100
4636	778.662	-13.997	0.538498
4640	779.24	-13.999	0.542198
4644	779.917	-13.888	0.559498
4648	780.526	-13.735	0.553699
4652	781.16	-13.695	0.572498
4656	781.9	-13.803	0.560799
4660	782.387	-13.906	0.529598
4664	783.162	-13.964	0.511497
4668	783.693	-14.021	0.505100
4672	784.338	-14.104	0.529900
4676	785.051	-14.146	0.541199
4680	785.624	-14.106	0.549400
4684	786.342	-13.945	0.523998
4688	786.867	-13.843	0.497997
4692	787.605	-13.975	0.481300
4696	788.184	-14.212	0.501198
4700	788.849	-14.428	0.547699
4704	789.566	-14.561	0.577000
4708	790.112	-14.532	0.581100
4712	790.831	-14.447	0.559998
4716	791.374	-14.374	0.537598
4720	792.052	-14.236	0.549000
4724	792.683	-14.119	0.548199
4728	793.31	-14.152	0.545898
4732	793.994	-14.347	0.557899
4736	794.538	-14.581	0.552799
4740	795.297	-14.7	0.554199
4744	795.829	-14.647	0.564800
4748	796.497	-14.468	0.550999
4752	797.132	-14.352	0.544300
4756	797.775	-14.32	0.574200
4760	798.485	-14.322	0.566200
4764	799.004	-14.326	0.532898
4768	799.712	-14.375	0.503799
4772	800.312	-14.492	0.462097
4776	801.003	-14.601	0.464199
4780	801.635	-14.539	0.521599
4784	802.221	-14.395	0.563698
4788	802.942	-14.292	0.582600
4792	803.479	-14.276	0.569000
4796	804.214	-14.317	0.552399
4800	804.783	-14.385	0.561897
4804	805.43	-14.453	0.522400
4808	806.096	-14.577	0.496799
4812	806.647	-14.725	0.484398
4816	807.393	-14.795	0.515999
4820	807.962	-14.683	0.525497
4824	808.634	-14.465	0.539997
4828	809.28	-14.388	0.550800
4832	809.908	-14.484	0.564999
4836	810.629	-14.638	0.586098
4840	811.195	-14.768	0.589500
4844	811.913	-14.83	0.569401
4848	812.425	-14.86	0.548798
4852	813.141	-14.887	0.545200
4856	813.82	-14.816	0.550598
4860	814.43	-14.741	0.537899
4864	815.171	-14.755	0.532497
4868	815.708	-14.836	0.523399
4872	816.459	-14.891	0.534199
4876	817.051	-14.833	0.534397
4880	817.678	-14.663	0.516098
4884	818.34	-14.499	0.521599
4888	818.925	-14.502	0.544399
4892	819.657	-14.714	0.544701
4896	820.214	-14.95	0.543098
4900	820.917	-15.077	0.536400
4904	821.478	-15.113	0.512897
4908	822.153	-15.084	0.505100
4912	822.863	-15.002	0.503998
4916	823.423	-14.873	0.479198
4920	824.155	-14.82	0.484398
4924	824.702	-14.931	0.521698
4928	825.413	-15.083	0.516998
4932	826.069	-15.032	0.471798
4936	826.674	-14.842	0.516800
4940	827.402	-14.732	0.542198
4944	827.876	-14.868	0.531300
4948	828.625	-15.185	0.500698
4952	829.235	-15.38	0.465797
4956	829.93	-15.352	0.514099
4960	830.632	-15.152	0.535297
4964	831.11	-14.903	0.470699
4968	831.87	-14.861	0.472900
4972	832.42	-15.02	0.501198
4976	833.142	-15.2	0.526199
4980	833.781	-15.228	0.505600
4984	834.357	-15.131	0.506199
4988	835.113	-14.969	0.500000
4992	835.648	-14.828	0.508499
4996	836.378	-14.856	0.531097
5000	836.947	-15.006	0.555397
5004	837.628	-15.068	0.570198
5008	838.271	-14.984	0.543301
5012	838.862	-14.965	0.535099
5016	839.572	-15.106	0.541599
5020	840.128	-15.28	0.540298
5024	840.795	-15.4	0.542000
5028	841.415	-15.385	0.534901
5032	842.09	-15.246	0.544498
5036	842.825	-15.199	0.563499
5040	843.35	-15.241	0.563198
5044	844.083	-15.176	0.577698
5048	844.626	-15.042	0.570297
5052	845.384	-15.058	0.531200
5056	845.986	-15.176	0.526199
5060	846.558	-15.25	0.558498
5064	847.282	-15.179	0.543499
5068	847.842	-15.05	0.528198
5072	848.556	-15.042	0.516399
5076	849.137	-15.196	0.523899
5080	849.807	-15.353	0.519600
5084	850.51	-15.357	0.508099
5088	851.088	-15.263	0.508301
5092	851.771	-15.169	0.528599
5096	852.331	-15.142	0.572399
5100	853.034	-15.161	0.572399
5104	853.643	-15.057	0.506798
5108	854.286	-14.935	0.513199
5112	854.984	-14.969	0.511497
5116	855.522	-15.138	0.492298
5120	856.269	-15.261	0.499599
5124	856.818	-15.289	0.485897
5128	857.493	-15.338	0.478500
5132	858.164	-15.369	0.457600
5136	858.693	-15.44	0.499298
5140	859.41	-15.58	0.517097
5144	859.966	-15.599	0.516499
5148	860.691	-15.457	0.536999
5152	861.351	-15.238	0.508301
5156	861.935	-15.111	0.495598
5160	862.62	-15.266	0.492897
5164	863.147	-15.519	0.480598
5168	863.831	-15.644	0.491798
5172	864.475	-15.714	0.473598
5176	865.127	-15.709	0.433498
5180	865.825	-15.692	0.422501
5184	866.334	-15.717	0.457100
5188	867.12	-15.763	0.512501
5192	867.584	-15.768	0.542198
5196	868.345	-15.717	0.529400
5200	868.978	-15.624	0.514500
5204	869.637	-15.656	0.534901
5208	870.309	-15.719	0.547298
5212	870.807	-15.736	0.518997
5216	871.539	-15.783	0.487198
5220	872.115	-15.862	0.475300
5224	872.802	-15.935	0.467098
5228	873.513	-15.972	0.499500
5232	874.082	-15.994	0.530899
5236	874.762	-16.045	0.533100
5240	875.28	-16.141	0.531498
5244	876.04	-16.222	0.510098
5248	876.677	-16.238	0.512199
5252	877.262	-16.249	0.547699
5256	878.016	-16.265	0.537701
5260	878.552	-16.302	0.520500
5264	879.233	-16.349	0.500999
5268	879.81	-16.4	0.498299
5272	880.496	-16.441	0.524799
5276	881.206	-16.463	0.541199
5280	881.73	-16.479	0.544197
5284	882.492	-16.437	0.513298
5288	883.062	-16.332	0.492897
5292	883.739	-16.238	0.475201
5296	884.421	-16.199	0.399899
5300	885.019	-16.196	0.370800
5304	885.697	-16.27	0.448799
5308	886.261	-16.382	0.488197
5312	887.025	-16.399	0.531799
5316	887.612	-16.348	0.544098
5320	888.207	-16.361	0.521500
5324	888.97	-16.399	0.516598
5328	889.512	-16.387	0.533699
5332	890.249	-16.41	0.540798
5336	890.817	-16.46	0.504700
5340	891.554	-16.515	0.534698
5344	892.156	-16.525	0.552299
5348	892.764	-16.439	0.534500
5352	893.511	-16.337	0.557499
5356	894.034	-16.328	0.564899
5360	894.724	-16.388	0.556000
5364	895.365	-16.44	0.572098
5368	896.012	-16.414	0.563099
5372	896.697	-16.335	0.518299
5376	897.187	-16.362	0.477398
5380	897.929	-16.504	0.493900
5384	898.533	-16.585	0.511700
5388	899.152	-16.554	0.528099
5392	899.892	-16.526	0.532898
5396	900.448	-16.575	0.515800
5400	901.158	-16.62	0.501499
5403	901.666	-16.593	0.484299