File: DSC Data Files/DSC_PU_Sample3.txt
Time(sec)	Temp(C)	DSC(mW)
0.000000	30.4492	-0.420260
2.500000	30.421	-0.421244
5.000000	30.3764	-0.430189
7.500000	30.3451	-0.475017
10	30.3875	-0.535637
12.5	30.5538	-0.566292
15	30.8413	-0.562103
17.5	31.1964	-0.527826
20	31.5879	-0.473845
22.5	32.0037	-0.414455
25	32.4251	-0.358971
27.5	32.8467	-0.311474
30	33.2769	-0.271986
32.5	33.7082	-0.239945
35	34.1355	-0.213950
37.5	34.5647	-0.192010
40	34.9945	-0.173526
42.5	35.4223	-0.157909
45	35.8476	-0.144780
47.5	36.277	-0.133273
50	36.7052	-0.123161
52.5	37.1345	-0.114029
55	37.5619	-0.105747
57.5	37.9919	-0.098428
60	38.4184	-0.091661
62.5	38.8486	-0.085519
65	39.276	-0.079987
67.5	39.7019	-0.074616
70	40.1298	-0.069769
72.5	40.5566	-0.065494
75	40.9853	-0.061557
77.5	41.4129	-0.057833
80	41.8422	-0.054109
82.5	42.2658	-0.050643
85	42.6951	-0.047454
87.5	43.1214	-0.044474
90	43.5492	-0.041494
92.5	43.9772	-0.038504
95	44.4027	-0.035722
97.5	44.83	-0.033073
100	45.2554	-0.030452
102.5	45.6793	-0.027921
105	46.108	-0.025616
107.5	46.5336	-0.023133
110	46.9605	-0.020694
112.5	47.3866	-0.018356
115	47.811	-0.015921
117.5	48.2372	-0.013691
120	48.6627	-0.011283
122.5	49.0902	-0.009143
125	49.5156	-0.007458
127.5	49.9419	-0.006029
130	50.3658	-0.004061
132.5	50.7911	-0.002199
135	51.2144	-0.000476
137.5	51.64	0.001562
140	52.0673	0.002868
142.5	52.4925	0.004168
145	52.9189	0.005222
147.5	53.3468	0.005869
150	53.7708	0.006495
152.5	54.1963	0.007447
155	54.6233	0.008437
157.5	55.0475	0.009111
160	55.4744	0.009694
162.5	55.9008	0.010277
165	56.3247	0.011353
167.5	56.7513	0.012251
170	57.1766	0.013006
172.5	57.5987	0.014017
175	58.0238	0.015194
177.5	58.448	0.016307
180	58.8744	0.017205
182.5	59.2971	0.018532
185	59.7237	0.020003
187.5	60.148	0.021453
190	60.5699	0.023320
192.5	60.9904	0.025546
195	61.4149	0.027788
197.5	61.8382	0.030249
200	62.2626	0.032838
202.5	62.6897	0.034652
205	63.1113	0.036118
207.5	63.5365	0.037878
210	63.9591	0.039311
212.5	64.3814	0.040986
215	64.8089	0.042543
217.5	65.2318	0.043260
220	65.657	0.044335
222.5	66.0821	0.045539
225	66.5055	0.046427
227.5	66.9291	0.047572
230	67.3503	0.048128
232.5	67.7745	0.048385
235	68.1981	0.048701
237.5	68.6206	0.049161
240	69.0437	0.049979
242.5	69.4674	0.050338
245	69.8914	0.050915
247.5	70.3123	0.051520
250	70.7338	0.051969
252.5	71.1563	0.052397
255	71.5769	0.052323
257.5	72.0003	0.052285
260	72.4211	0.052836
262.5	72.8432	0.053360
265	73.2655	0.053821
267.5	73.689	0.054158
270	74.1108	0.054072
272.5	74.534	0.053944
275	74.9544	0.053981
277.5	75.3798	0.054206
280	75.8016	0.054297
282.5	76.2222	0.054216
285	76.6455	0.053890
287.5	77.0663	0.053494
290	77.4892	0.052986
292.5	77.9123	0.052579
295	78.3355	0.052012
297.5	78.7546	0.051798
300	79.1774	0.051900
302.5	79.5981	0.051606
305	80.0202	0.051274
307.5	80.4428	0.050605
310	80.867	0.049936
312.5	81.2878	0.049519
315	81.7113	0.048973
317.5	82.1318	0.048412
320	82.5552	0.047877
322.5	82.9736	0.047106
325	83.3951	0.046026
327.5	83.8183	0.044993
330	84.2376	0.044153
332.5	84.6594	0.043222
335	85.0824	0.042345
337.5	85.499	0.041296
340	85.9196	0.040456
342.5	86.3398	0.039488
345	86.758	0.038359
347.5	87.1808	0.037846
350	87.6011	0.037161
352.5	88.0211	0.036669
355	88.4409	0.035962
357.5	88.8609	0.035058
360	89.2797	0.034042
362.5	89.7004	0.032774
365	90.1217	0.032019
367.5	90.5432	0.031276
370	90.9626	0.030281
372.5	91.3859	0.028895
375	91.8059	0.028039
377.5	92.2268	0.027499
380	92.6455	0.026402
382.5	93.066	0.024936
385	93.4846	0.023540
387.5	93.9031	0.022582
390	94.323	0.021828
392.5	94.7428	0.021063
395	95.1647	0.020212
397.5	95.5868	0.018928
400	96.0016	0.017981
402.5	96.4217	0.016959
405	96.8413	0.015595
407.5	97.2606	0.014440
410	97.68	0.013450
412.5	98.0979	0.012604
415	98.516	0.011454
417.5	98.9347	0.010400
420	99.3538	0.009625
422.5	99.7737	0.008629
425	100.195	0.007763
427.5	100.61	0.007217
430	101.029	0.006222
432.5	101.449	0.004959
435	101.866	0.004082
437.5	102.284	0.003242
440	102.704	0.002359
442.5	103.121	0.001487
445	103.54	0.000503
447.5	103.956	-0.000235
450	104.374	-0.001054
452.5	104.795	-0.002145
455	105.212	-0.002616
457.5	105.633	-0.002873
460	106.052	-0.003354
462.5	106.467	-0.003745
465	106.888	-0.003922
467.5	107.306	-0.004350
470	107.723	-0.004981
472.5	108.142	-0.005510
475	108.559	-0.006056
477.5	108.975	-0.006725
480	109.393	-0.007303
482.5	109.808	-0.008159
485	110.224	-0.009314
487.5	110.643	-0.009812
490	111.059	-0.010427
492.5	111.476	-0.011492
495	111.891	-0.012465
497.5	112.308	-0.013712
500	112.722	-0.015210
502.5	113.14	-0.016275
505	113.555	-0.017821
507.5	113.974	-0.019522
510	114.39	-0.021250
512.5	114.803	-0.023604
515	115.221	-0.026086
517.5	115.637	-0.029173
520	116.054	-0.032239
522.5	116.471	-0.034876
525	116.885	-0.036743
527.5	117.303	-0.037204
530	117.715	-0.035882
532.5	118.134	-0.032645
535	118.548	-0.028724
537.5	118.966	-0.025054
540	119.38	-0.022416
542.5	119.795	-0.020662
545	120.209	-0.019993
547.5	120.628	-0.020367
550	121.045	-0.020212
552.5	121.461	-0.019720
555	121.875	-0.019378
557.5	122.289	-0.019185
560	122.702	-0.019993
562.5	123.117	-0.020383
565	123.533	-0.020180
567.5	123.948	-0.020421
570	124.363	-0.020587
572.5	124.777	-0.020651
575	125.189	-0.020533
577.5	125.606	-0.020571
580	126.019	-0.020469
582.5	126.433	-0.020175
585	126.846	-0.020062
587.5	127.26	-0.019918
590	127.673	-0.020020
592.5	128.09	-0.019929
595	128.504	-0.019495
597.5	128.917	-0.019415
600	129.328	-0.019319
602.5	129.742	-0.019067
605	130.157	-0.019094
607.5	130.569	-0.019244
610	130.98	-0.018719
612.5	131.395	-0.018366
615	131.809	-0.018324
617.5	132.222	-0.017778
620	132.635	-0.017724
622.5	133.047	-0.017660
625	133.458	-0.017211
627.5	133.869	-0.017580
630	134.283	-0.017409
632.5	134.696	-0.016922
635	135.108	-0.016703
637.5	135.519	-0.016146
640	135.934	-0.015868
642.5	136.344	-0.015932
645	136.755	-0.015879
647.5	137.17	-0.015397
650	137.581	-0.015440
652.5	137.994	-0.014975
655	138.406	-0.013910
657.5	138.815	-0.013926
660	139.228	-0.014343
662.5	139.638	-0.014359
665	140.051	-0.014119
667.5	140.464	-0.013883
670	140.875	-0.013407
672.5	141.285	-0.012856
675	141.696	-0.012412
677.5	142.106	-0.012048
680	142.518	-0.012112
682.5	142.928	-0.012235
685	143.338	-0.012310
687.5	143.747	-0.011310
690	144.158	-0.010026
692.5	144.566	-0.010122
695	144.978	-0.010101
697.5	145.389	-0.009502
700	145.799	-0.009255
702.5	146.207	-0.008860
705	146.617	-0.008394
707.5	147.025	-0.008303
710	147.436	-0.007784
712.5	147.844	-0.007372
715	148.253	-0.006805
717.5	148.662	-0.006158
720	149.07	-0.005847
722.5	149.476	-0.005553
725	149.888	-0.005329
727.5	150.297	-0.004692
730	150.71	-0.003633
732.5	151.119	-0.002638
735	151.528	-0.002531
737.5	151.937	-0.002172
740	152.349	-0.001284
742.5	152.756	-0.000840
745	153.167	-0.000177
747.5	153.575	0.000476
750	153.983	0.001257
752.5	154.394	0.002081
755	154.804	0.002702
757.5	155.212	0.003477
760	155.624	0.004232
762.5	156.033	0.004794
765	156.442	0.005601
767.5	156.854	0.006843
770	157.267	0.007634
772.5	157.679	0.008330
775	158.092	0.010309
777.5	158.504	0.012273
780	158.915	0.013332
782.5	159.327	0.014322
785	159.738	0.015140
787.5	160.151	0.015831
790	160.566	0.016793
792.5	160.978	0.018104
795	161.39	0.019206
797.5	161.802	0.020292
800	162.215	0.021336
802.5	162.631	0.022197
805	163.045	0.023502
807.5	163.456	0.025707
810	163.874	0.027520
812.5	164.286	0.028398
815	164.7	0.029687
817.5	165.117	0.031415
820	165.534	0.033694
822.5	165.949	0.035823
825	166.362	0.037369
827.5	166.778	0.038589
830	167.197	0.039434
832.5	167.613	0.040959
835	168.029	0.042832
837.5	168.448	0.044865
840	168.863	0.047096
842.5	169.28	0.049043
845	169.7	0.051349
847.5	170.115	0.053232
850	170.534	0.055452
852.5	170.952	0.057833
855	171.37	0.058919
857.5	171.785	0.060433
860	172.207	0.062760
862.5	172.624	0.064178
865	173.043	0.064916
867.5	173.46	0.065901
870	173.877	0.067040
872.5	174.297	0.068415
875	174.715	0.069496
877.5	175.133	0.070314
880	175.552	0.071095
882.5	175.969	0.072353
885	176.385	0.074241
887.5	176.803	0.075472
890	177.222	0.076697
892.5	177.642	0.077869
895	178.062	0.078559
897.5	178.478	0.079661
900	178.897	0.080511
902.5	179.316	0.081555
905	179.734	0.082897
907.5	180.154	0.083384
910	180.574	0.083871
912.5	180.994	0.084845
915	181.413	0.085776
917.5	181.835	0.086653
920	182.252	0.087948
922.5	182.674	0.089146
925	183.091	0.089927
927.5	183.51	0.091019
930	183.931	0.092110
932.5	184.349	0.092907
935	184.767	0.093753
937.5	185.189	0.094036
940	185.609	0.094999
942.5	186.027	0.096668
945	186.446	0.097556
947.5	186.866	0.098113
950	187.285	0.098765
952.5	187.709	0.098883
955	188.129	0.099188
957.5	188.546	0.101200
960	188.967	0.103393
962.5	189.388	0.104420
965	189.807	0.105624
967.5	190.228	0.106828
970	190.647	0.107058
972.5	191.067	0.106956
975	191.487	0.107036
977.5	191.908	0.107796
980	192.329	0.108411
982.5	192.751	0.109412
985	193.171	0.111370
987.5	193.59	0.113103
990	194.012	0.114179
992.5	194.43	0.115051
995	194.852	0.116190
997.5	195.271	0.116848
1000	195.693	0.116950
1002.5	196.114	0.118400
1005	196.533	0.120556
1007.5	196.954	0.122123
1010	197.373	0.122385
1012.5	197.794	0.121471
1015	198.216	0.121380
1017.5	198.635	0.122268
1020	199.056	0.123247
1022.5	199.479	0.123873
1025	199.898	0.124461
1027.5	200.32	0.125622
1030	200.742	0.126564
1032.5	201.16	0.127131
1035	201.583	0.128024
1037.5	202.003	0.128752
1040	202.423	0.129506
1042.5	202.847	0.130624
1045	203.268	0.131780
1047.5	203.689	0.132775
1050	204.111	0.133283
1052.5	204.529	0.134803
1055	204.952	0.136991
1057.5	205.373	0.138403
1060	205.793	0.139965
1062.5	206.212	0.140527
1065	206.634	0.140490
1067.5	207.055	0.140853
1070	207.474	0.140623
1072.5	207.896	0.141378
1075	208.316	0.143207
1077.5	208.734	0.144577
1080	209.157	0.145240
1082.5	209.579	0.145454
1085	210.002	0.146861
1087.5	210.424	0.148718
1090	210.844	0.149504
1092.5	211.268	0.150136
1095	211.69	0.151339
1097.5	212.108	0.152516
1100	212.535	0.152388
1102.5	212.953	0.151965
1105	213.375	0.152436
1107.5	213.795	0.153265
1110	214.216	0.153918
1112.5	214.637	0.154036
1115	215.059	0.154865
1117.5	215.478	0.157513
1120	215.898	0.160017
1122.5	216.319	0.161365
1125	216.739	0.162874
1127.5	217.16	0.163949
1130	217.583	0.164158
1132.5	218.002	0.163992
1135	218.425	0.163676
1137.5	218.844	0.164190
1140	219.263	0.165410
1142.5	219.68	0.166485
1145	220.014	0.175066
1147.5	220.207	0.198933
1150	220.298	0.211163
1152.5	220.336	0.187553
1155	220.354	0.145331
1157.5	220.361	0.105025
1160	220.361	0.074450
1162.5	220.368	0.053847
1165	220.37	0.040569
1167.5	220.371	0.032469
1170	220.372	0.028028
1172.5	220.371	0.025241
1175	220.371	0.022892
1177.5	220.373	0.021111
1180	220.373	0.020474
1182.5	220.374	0.020373
1185	220.374	0.019008
1187.5	220.374	0.017398
1190	220.375	0.017425
1192.5	220.378	0.016911
1195	220.376	0.015194
1197.5	220.379	0.015108
1200	220.38	0.017205
1202.5	220.379	0.018120
1205	220.382	0.017066
1207.5	220.382	0.016403
1210	220.382	0.015745
1212.5	220.383	0.015194
1215	220.383	0.015461
1217.5	220.385	0.016210
1220	220.386	0.016606
1222.5	220.386	0.016483
1225	220.386	0.016312
1227.5	220.387	0.016050
1230	220.386	0.016023
1232.5	220.388	0.015884
1235	220.39	0.015055
1237.5	220.388	0.014659
1240	220.39	0.014648
1242.5	220.391	0.014750
1245	220.395	0.015718
1247.5	220.397	0.016162
1250	220.395	0.016077
1252.5	220.397	0.015996
1255	220.396	0.015296
1257.5	220.397	0.015386
1260	220.4	0.016007
1262.5	220.398	0.016633
1265	220.398	0.017703
1267.5	220.4	0.017778
1270	220.4	0.016991
1272.5	220.401	0.017307
1275	220.404	0.018035
1277.5	220.402	0.017965
1280	220.402	0.017981
1282.5	220.406	0.017944
1285	220.405	0.017280
1287.5	220.408	0.016927
1290	220.409	0.017093
1292.5	220.406	0.017040
1295	220.408	0.016355
1297.5	220.411	0.016403
1300	220.408	0.016911
1302.5	220.412	0.017778
1305	220.412	0.019789
1307.5	220.411	0.020870
1310	220.412	0.020576
1312.5	220.413	0.019522
1315	220.417	0.018885
1317.5	220.417	0.019485
1320	220.418	0.019570
1322.5	220.418	0.019319
1325	220.415	0.019190
1327.5	220.415	0.018500
1330	220.417	0.018019
1332.5	220.417	0.018035
1335	220.418	0.018324
1337.5	220.42	0.018645
1340	220.417	0.018340
1342.5	220.417	0.018072
1345	220.42	0.018222
1347.5	220.419	0.018184
1350	220.421	0.018211
1352.5	220.421	0.018452
1355	220.422	0.018885
1357.5	220.423	0.019559
1360	220.422	0.019645
1362.5	220.422	0.019506
1365	220.424	0.019570
1367.5	220.426	0.018746
1370	220.427	0.018805
1372.5	220.429	0.020121
1375	220.428	0.020474
1377.5	220.429	0.020041
1380	220.429	0.019725
1382.5	220.43	0.019559
1385	220.432	0.019126
1387.5	220.434	0.019153
1390	220.434	0.020410
1392.5	220.433	0.021325
1395	220.434	0.021571
1397.5	220.433	0.022459
1400	220.435	0.023310
1402.5	220.435	0.022689
1405	220.434	0.021999
1407.5	220.438	0.021897
1410	220.438	0.022090
1412.5	220.439	0.022700
1415	220.442	0.022727
1417.5	220.438	0.022165
1420	220.439	0.021571
1422.5	220.44	0.020993
1425	220.437	0.020993
1427.5	220.44	0.021453
1430	220.439	0.021673
1432.5	220.44	0.021887
1435	220.441	0.021507
1437.5	220.44	0.020576
1440	220.444	0.020207
1442.5	220.444	0.020640
1445	220.445	0.021368
1447.5	220.444	0.022015
1450	220.445	0.022336
1452.5	220.443	0.023299
1455	220.446	0.023946
1457.5	220.445	0.023427
1460	220.446	0.022561
1462.5	220.447	0.022234
1465	220.449	0.022234
1467.5	220.449	0.021876
1470	220.452	0.022165
1472.5	220.45	0.023122
1475	220.451	0.024214
1477.5	220.455	0.023989
1480	220.45	0.023251
1482.5	220.453	0.022818
1485	220.454	0.022384
1487.5	220.455	0.022919
1490	220.452	0.023695
1492.5	220.454	0.023845
1495	220.453	0.024011
1497.5	220.454	0.023946
1500	220.454	0.023641
1502.5	220.455	0.024150
1505	220.455	0.024289
1507.5	220.456	0.024192
1510	220.457	0.024353
1512.5	220.456	0.024524
1515	220.455	0.024776
1517.5	220.457	0.024455
1520	220.457	0.023920
1522.5	220.457	0.024267
1525	220.457	0.024599
1527.5	220.457	0.024267
1530	220.458	0.024342
1532.5	220.461	0.024738
1535	220.458	0.024979
1537.5	220.46	0.025107
1540	220.459	0.025220
1542.5	220.459	0.025166
1545	220.462	0.024990
1547.5	220.46	0.025551
1550	220.459	0.026760
1552.5	220.462	0.026605
1555	220.465	0.025894
1557.5	220.464	0.025883
1560	220.465	0.026076
1562.5	220.465	0.026670
1565	220.469	0.026670
1567.5	220.467	0.025846
1570	220.466	0.025669
1572.5	220.467	0.025653
1575	220.467	0.025107
1577.5	220.468	0.025054
1580	220.468	0.025728
1582.5	220.467	0.026097
1585	220.466	0.025958
1587.5	220.47	0.026670
1590	220.469	0.027547
1592.5	220.466	0.027194
1595	220.468	0.026391
1597.5	220.47	0.026407
1600	220.474	0.026632
1602.5	220.475	0.026670
1605	220.473	0.026926
1607.5	220.475	0.027354
1610	220.474	0.027665
1612.5	220.475	0.027253
1615	220.476	0.026846
1617.5	220.476	0.027279
1620	220.474	0.027665
1622.5	220.477	0.027344
1625	220.476	0.026948
1627.5	220.476	0.027140
1630	220.478	0.027868
1632.5	220.476	0.028467
1635	220.479	0.029023
1637.5	220.479	0.029542
1640	220.479	0.029569
1642.5	220.481	0.029061
1645	220.481	0.028237
1647.5	220.481	0.027841
1650	220.481	0.027756
1652.5	220.48	0.027777
1655	220.48	0.027739
1657.5	220.482	0.027627
1660	220.482	0.027766
1662.5	220.481	0.028440
1665	220.484	0.029179
1667.5	220.484	0.029200
1670	220.484	0.029484
1672.5	220.484	0.029152
1675	220.483	0.028911
1677.5	220.485	0.029789
1680	220.484	0.030131
1682.5	220.483	0.030500
1685	220.487	0.030655
1687.5	220.487	0.030307
1690	220.483	0.030842
1692.5	220.486	0.031886
1695	220.485	0.032014
1697.5	220.488	0.031404
1700	220.488	0.030896
1702.5	220.49	0.030816
1705	220.487	0.031404
1707.5	220.488	0.031581
1710	220.486	0.030741
1712.5	220.489	0.029863
1715	220.488	0.030077
1717.5	220.489	0.030987
1720	220.491	0.031426
1722.5	220.491	0.031656
1725	220.489	0.031875
1727.5	220.491	0.032143
1730	220.491	0.032383
1732.5	220.492	0.032549
1735	220.491	0.033277
1737.5	220.491	0.033919
1740	220.495	0.034887
1742.5	220.49	0.034775
1745	220.415	0.040761
1747.5	220.207	0.060652
1750	219.887	0.071309
1752.5	219.504	0.049236
1755	219.094	0.007554
1757.5	218.678	-0.036685
1760	218.255	-0.073701
1762.5	217.833	-0.097679
1765	217.414	-0.112402
1767.5	216.998	-0.122102
1770	216.582	-0.127596
1772.5	216.16	-0.131106
1775	215.742	-0.133834
1777.5	215.327	-0.136734
1780	214.909	-0.139136
1782.5	214.494	-0.141640
1785	214.071	-0.143978
1787.5	213.651	-0.145428
1790	213.232	-0.146915
1792.5	212.813	-0.148097
1795	212.393	-0.148632
1797.5	211.974	-0.149676
1800	211.555	-0.150981
1802.5	211.135	-0.152174
1805	210.717	-0.153062
1807.5	210.299	-0.153672
1810	209.879	-0.154004
1812.5	209.461	-0.154565
1815	209.04	-0.155892
1817.5	208.623	-0.157572
1820	208.206	-0.158776
1822.5	207.785	-0.159873
1825	207.367	-0.160654
1827.5	206.945	-0.161729
1830	206.529	-0.162232
1832.5	206.109	-0.163088
1835	205.69	-0.164046
1837.5	205.273	-0.165035
1840	204.856	-0.166293
1842.5	204.434	-0.167298
1845	204.018	-0.168197
1847.5	203.597	-0.168711
1850	203.181	-0.169149
1852.5	202.764	-0.170005
1855	202.344	-0.170942
1857.5	201.925	-0.171787
1860	201.509	-0.172509
1862.5	201.087	-0.172835
1865	200.667	-0.173504
1867.5	200.253	-0.174751
1870	199.834	-0.175644
1872.5	199.418	-0.176243
1875	199	-0.177142
1877.5	198.581	-0.177367
1880	198.163	-0.177961
1882.5	197.743	-0.178720
1885	197.324	-0.178956
1887.5	196.907	-0.179352
1890	196.488	-0.180202
1892.5	196.072	-0.181781
1895	195.657	-0.183091
1897.5	195.236	-0.183423
1900	194.82	-0.183680
1902.5	194.398	-0.184777
1905	193.981	-0.186200
1907.5	193.561	-0.187628
1910	193.143	-0.188575
1912.5	192.725	-0.189238
1915	192.309	-0.190121
1917.5	191.889	-0.190624
1920	191.468	-0.191159
1922.5	191.053	-0.192165
1925	190.636	-0.193449
1927.5	190.221	-0.194653
1930	189.803	-0.195418
1932.5	189.385	-0.195305
1935	188.969	-0.195690
1937.5	188.551	-0.196536
1940	188.135	-0.197269
1942.5	187.718	-0.198408
1945	187.299	-0.198879
1947.5	186.884	-0.199205
1950	186.462	-0.200190
1952.5	186.045	-0.201340
1955	185.627	-0.201896
1957.5	185.21	-0.202389
1960	184.792	-0.202934
1962.5	184.378	-0.203806
1965	183.96	-0.205106
1967.5	183.542	-0.205599
1970	183.127	-0.206310
1972.5	182.71	-0.207364
1975	182.294	-0.208225
1977.5	181.876	-0.209188
1980	181.457	-0.210007
1982.5	181.041	-0.210339
1985	180.624	-0.210718
1987.5	180.206	-0.211409
1990	179.792	-0.212318
1992.5	179.371	-0.213784
1995	178.954	-0.215314
1997.5	178.539	-0.216561
2000	178.119	-0.217278
2002.5	177.706	-0.218107
2005	177.288	-0.218866
2007.5	176.871	-0.219519
2010	176.458	-0.220546
2012.5	176.04	-0.229711
2015	175.62	-0.239726
2017.5	175.206	-0.237618
2020	174.79	-0.232814
2022.5	174.375	-0.230941
2025	173.959	-0.229759
2027.5	173.543	-0.229074
2030	173.126	-0.229401
2032.5	172.713	-0.230412
2035	172.296	-0.231187
2037.5	171.882	-0.231508
2040	171.466	-0.231749
2042.5	171.051	-0.232445
2045	170.634	-0.233418
2047.5	170.217	-0.234237
2050	169.803	-0.235382
2052.5	169.39	-0.236468
2055	168.976	-0.237211
2057.5	168.562	-0.237934
2060	168.147	-0.238849
2062.5	167.732	-0.239806
2065	167.319	-0.240710
2067.5	166.905	-0.241513
2070	166.492	-0.242385
2072.5	166.08	-0.243444
2075	165.667	-0.244097
2077.5	165.254	-0.244402
2080	164.843	-0.245097
2082.5	164.428	-0.245595
2085	164.014	-0.246371
2087.5	163.604	-0.247612
2090	163.191	-0.248725
2092.5	162.779	-0.249918
2095	162.367	-0.251239
2097.5	161.956	-0.252143
2100	161.547	-0.252507
2102.5	161.136	-0.253315
2105	160.726	-0.254214
2107.5	160.315	-0.254840
2110	159.906	-0.255417
2112.5	159.495	-0.256038
2115	159.084	-0.256546
2117.5	158.675	-0.257472
2120	158.266	-0.258210
2122.5	157.859	-0.258622
2125	157.448	-0.259382
2127.5	157.041	-0.260077
2130	156.634	-0.260799
2132.5	156.225	-0.261377
2135	155.816	-0.262351
2137.5	155.408	-0.263715
2140	154.997	-0.264651
2142.5	154.587	-0.265572
2145	154.18	-0.266732
2147.5	153.771	-0.267471
2150	153.366	-0.268188
2152.5	152.957	-0.268450
2155	152.552	-0.268466
2157.5	152.144	-0.269300
2160	151.737	-0.270290
2162.5	151.329	-0.271205
2165	150.923	-0.272173
2167.5	150.515	-0.272992
2170	150.11	-0.273516
2172.5	149.703	-0.274030
2175	149.296	-0.275694
2177.5	148.89	-0.280744
2180	148.483	-0.290299
2182.5	148.077	-0.293439
2185	147.671	-0.288598
2187.5	147.266	-0.285158
2190	146.858	-0.284056
2192.5	146.451	-0.284131
2195	146.043	-0.284238
2197.5	145.638	-0.285291
2200	145.23	-0.286121
2202.5	144.822	-0.286447
2205	144.416	-0.287287
2207.5	144.005	-0.288325
2210	143.599	-0.289154
2212.5	143.193	-0.289834
2215	142.783	-0.290566
2217.5	142.376	-0.291342
2220	141.971	-0.292380
2222.5	141.561	-0.293782
2225	141.156	-0.294686
2227.5	140.746	-0.295055
2230	140.335	-0.295510
2232.5	139.927	-0.296120
2235	139.519	-0.296863
2237.5	139.109	-0.297842
2240	138.702	-0.298880
2242.5	138.291	-0.299752
2245	137.882	-0.300501
2247.5	137.475	-0.301561
2250	137.065	-0.302818
2252.5	136.655	-0.303497
2255	136.246	-0.304236
2257.5	135.837	-0.305033
2260	135.426	-0.305466
2262.5	135.017	-0.306215
2265	134.606	-0.307076
2267.5	134.198	-0.307686
2270	133.789	-0.308339
2272.5	133.38	-0.309452
2275	132.97	-0.310324
2277.5	132.56	-0.311084
2280	132.148	-0.312656
2282.5	131.741	-0.313625
2285	131.328	-0.314122
2287.5	130.918	-0.314700
2290	130.508	-0.315561
2292.5	130.098	-0.316487
2295	129.686	-0.317327
2297.5	129.274	-0.317996
2300	128.862	-0.318787
2302.5	128.452	-0.319242
2305	128.047	-0.319767
2307.5	127.635	-0.320441
2310	127.226	-0.320885
2312.5	126.814	-0.321746
2315	126.403	-0.322281
2317.5	125.993	-0.322859
2320	125.582	-0.323870
2322.5	125.172	-0.324892
2325	124.761	-0.325448
2327.5	124.351	-0.326170
2330	123.938	-0.327016
2332.5	123.528	-0.327931
2335	123.118	-0.328947
2337.5	122.708	-0.329327
2340	122.296	-0.330113
2342.5	121.883	-0.331189
2345	121.471	-0.331857
2347.5	121.06	-0.332499
2350	120.646	-0.333270
2352.5	120.232	-0.334099
2355	119.824	-0.335260
2357.5	119.412	-0.336325
2360	119.002	-0.336844
2362.5	118.587	-0.337496
2365	118.175	-0.338529
2367.5	117.762	-0.339588
2370	117.349	-0.340444
2372.5	116.937	-0.341038
2375	116.523	-0.341578
2377.5	116.111	-0.342498
2380	115.699	-0.343547
2382.5	115.285	-0.344210
2385	114.872	-0.344729
2387.5	114.463	-0.345799
2390	114.049	-0.346752
2392.5	113.638	-0.347196
2395	113.228	-0.348068
2397.5	112.813	-0.349421
2400	112.397	-0.350582
2402.5	111.985	-0.351909
2405	111.571	-0.353022
2407.5	111.158	-0.353669
2410	110.745	-0.354712
2412.5	110.334	-0.355740
2415	109.922	-0.356767
2417.5	109.509	-0.357805
2420	109.093	-0.359147
2422.5	108.682	-0.359998
2425	108.269	-0.360640
2427.5	107.856	-0.361464
2430	107.446	-0.362555
2432.5	107.029	-0.364241
2435	106.618	-0.365097
2437.5	106.209	-0.365487
2440	105.796	-0.366065
2442.5	105.383	-0.367081
2445	104.972	-0.368007
2447.5	104.557	-0.368922
2450	104.141	-0.370340
2452.5	103.728	-0.371447
2455	103.317	-0.372469
2457.5	102.901	-0.373384
2460	102.491	-0.374315
2462.5	102.076	-0.375112
2465	101.661	-0.375791
2467.5	101.249	-0.376492
2470	100.836	-0.377353
2472.5	100.425	-0.377995
2475	100.015	-0.378595
2477.5	99.6009	-0.379579
2480	99.1871	-0.380553
2482.5	98.777	-0.381227
2485	98.3634	-0.381772
2487.5	97.9528	-0.382757
2490	97.5416	-0.383843
2492.5	97.1303	-0.384463
2495	96.7204	-0.384897
2497.5	96.31	-0.385410
2500	95.9025	-0.385887
2502.5	95.4956	-0.386229
2505	95.0857	-0.386775
2507.5	94.6799	-0.387369
2510	94.2737	-0.388096
2512.5	93.8674	-0.388733
2515	93.4614	-0.389059
2517.5	93.0564	-0.389674
2520	92.651	-0.390504
2522.5	92.2497	-0.390990
2525	91.8464	-0.391295
2527.5	91.4456	-0.391814
2530	91.0484	-0.392109
2532.5	90.649	-0.392237
2535	90.2556	-0.392825
2537.5	89.8642	-0.393146
2540	89.4729	-0.392868
2542.5	89.0853	-0.392761
2545	88.7005	-0.392483
2547.5	88.3178	-0.392039
2550	87.9372	-0.391707
2552.5	87.5604	-0.391327
2555	87.1844	-0.391065
2557.5	86.8089	-0.390814
2560	86.4373	-0.390188
2562.5	86.0671	-0.389642
2565	85.7018	-0.389369
2567.5	85.3363	-0.388952
2570	84.9734	-0.388642
2572.5	84.6123	-0.388305
2575	84.2515	-0.387796
2577.5	83.892	-0.387572
2580	83.5403	-0.387417
2582.5	83.1871	-0.386919
2585	82.8358	-0.386347
2587.5	82.4896	-0.385833
2590	82.1421	-0.385202
2592.5	81.7999	-0.384640
2595	81.4596	-0.383966
2597.5	81.1182	-0.383270
2600	80.783	-0.382885
2602.5	80.4471	-0.382302
2605	80.1154	-0.381778
2607.5	79.7858	-0.381826
2610	79.4586	-0.381660
2612.5	79.1322	-0.381286
2615	78.8121	-0.380949
2617.5	78.4919	-0.380392
2620	78.1727	-0.379788
2622.5	77.8573	-0.379467
2625	77.5429	-0.379408
2627.5	77.2303	-0.379076
2630	76.9212	-0.378509
2632.5	76.6126	-0.378011
2635	76.3081	-0.377739
2637.5	76.0031	-0.377567
2640	75.6993	-0.377102
2642.5	75.4022	-0.376299
2645	75.1039	-0.375690
2647.5	74.8059	-0.375427
2650	74.5115	-0.375026
2652.5	74.2197	-0.374529
2655	73.9273	-0.374159
2657.5	73.6395	-0.374047
2660	73.351	-0.373646
2662.5	73.0686	-0.373175
2665	72.7859	-0.372656
2667.5	72.5031	-0.371939
2670	72.2226	-0.371688
2672.5	71.9456	-0.371677
2675	71.6705	-0.371190
2677.5	71.3957	-0.370618
2680	71.1244	-0.370249
2682.5	70.8532	-0.369896
2685	70.585	-0.369553
2687.5	70.317	-0.369323
2690	70.0542	-0.369232
2692.5	69.7887	-0.368938
2695	69.5248	-0.368328
2697.5	69.2624	-0.367980
2700	69.0031	-0.367788
2702.5	68.7461	-0.367274
2705	68.4892	-0.366611
2707.5	68.2351	-0.366413
2710	67.9823	-0.366343
2712.5	67.729	-0.366102
2715	67.4792	-0.366001
2717.5	67.2295	-0.365509
2720	66.9833	-0.364909
2722.5	66.7362	-0.364856
2725	66.4937	-0.364444
2727.5	66.2519	-0.364000
2730	66.0102	-0.363855
2732.5	65.7726	-0.363411
2735	65.5337	-0.362978
2737.5	65.2966	-0.362769
2740	65.0624	-0.362416
2742.5	64.8308	-0.361983
2745	64.598	-0.361801
2747.5	64.3688	-0.361625
2750	64.1425	-0.361411
2752.5	63.9144	-0.361271
2755	63.6913	-0.361031
2757.5	63.4677	-0.360704
2760	63.2442	-0.360533
2762.5	63.0226	-0.360057
2765	62.8025	-0.359683
2767.5	62.5868	-0.359613
2770	62.368	-0.359511
2772.5	62.1536	-0.359420
2775	61.9393	-0.358880
2777.5	61.7259	-0.358281
2780	61.513	-0.358382
2782.5	61.3031	-0.358168
2785	61.0937	-0.357585
2787.5	60.8851	-0.357617
2790	60.6821	-0.357414
2792.5	60.4752	-0.356901
2795	60.2715	-0.356911
2797.5	60.0709	-0.356777
2800	59.8656	-0.356419
2802.5	59.6631	-0.356178
2805	59.4641	-0.356045
2807.5	59.2623	-0.355905
2810	59.0641	-0.355820
2812.5	58.8692	-0.355376
2815	58.672	-0.354900
2817.5	58.4786	-0.354354
2820	58.2841	-0.354215
2822.5	58.0905	-0.354477
2825	57.9013	-0.354215
2827.5	57.7095	-0.354065
2830	57.5192	-0.353584
2832.5	57.3356	-0.353188
2835	57.1474	-0.353284
2837.5	56.96	-0.353193
2840	56.7779	-0.352728
2842.5	56.5944	-0.352342
2845	56.4114	-0.352246
2847.5	56.2285	-0.352134
2850	56.0503	-0.351770
2852.5	55.8719	-0.351219
2855	55.6941	-0.351149
2857.5	55.5135	-0.351401
2860	55.3428	-0.350983
2862.5	55.1669	-0.350711
2865	54.9928	-0.350855
2867.5	54.8229	-0.350518
2870	54.6509	-0.349978
2872.5	54.4812	-0.349876
2875	54.3137	-0.349897
2877.5	54.1455	-0.349582
2880	53.9799	-0.349298
2882.5	53.8138	-0.349362
2885	53.6476	-0.349282
2887.5	53.4864	-0.348801
2890	53.3225	-0.348597
2892.5	53.1617	-0.348330
2895	52.9999	-0.347891
2897.5	52.8415	-0.347971
2900	52.6815	-0.347533
2902.5	52.5255	-0.347110
2905	52.367	-0.347367
2907.5	52.2127	-0.347174
2910	52.058	-0.347083
2912.5	51.9015	-0.346987
2915	51.7505	-0.346586
2917.5	51.5961	-0.346473
2920	51.4442	-0.346340
2922.5	51.297	-0.346361
2925	51.1463	-0.346350
2927.5	50.9982	-0.345837
2930	50.8513	-0.345569
2932.5	50.7036	-0.345628
2935	50.5551	-0.345093
2937.5	50.4138	-0.344628
2940	50.2689	-0.344606
2942.5	50.1231	-0.344799
2945	49.9833	-0.344879
2947.5	49.8403	-0.344382
2950	49.6986	-0.343916
2952.5	49.5581	-0.343975
2955	49.4195	-0.343980
2957.5	49.2806	-0.343595
2960	49.1405	-0.343387
2962.5	49.0025	-0.343317
2965	48.8676	-0.343189
2967.5	48.7309	-0.343071
2970	48.5947	-0.343162
2972.5	48.4634	-0.343461
2975	48.3292	-0.342985
2977.5	48.1963	-0.342391
2980	48.0645	-0.342242
2982.5	47.9336	-0.342124
2985	47.8022	-0.342108
2987.5	47.6733	-0.341990
2990	47.5445	-0.341963
2992.5	47.417	-0.341883
2995	47.2892	-0.341755
2997.5	47.162	-0.341546
3000	47.0363	-0.341231
3002.5	46.9107	-0.340974
3005	46.7859	-0.340835
3007.5	46.6637	-0.340883
3010	46.5389	-0.340658
3012.5	46.4175	-0.340621
3015	46.2968	-0.340696
3017.5	46.1763	-0.340369
3020	46.0566	-0.340219
3022.5	45.9367	-0.340171
3025	45.8149	-0.339941
3027.5	45.7023	-0.339470
3030	45.5853	-0.339182
3032.5	45.4673	-0.339379
3035	45.3509	-0.339417
3037.5	45.2366	-0.339251
3040	45.1188	-0.338866
3042.5	45.0075	-0.338384
3045	44.8918	-0.338160
3047.5	44.7803	-0.338326
3050	44.6671	-0.338422
3052.5	44.555	-0.338465
3055	44.4452	-0.338026
3057.5	44.3343	-0.337646
3060	44.2235	-0.337753
3062.5	44.1155	-0.337732
3065	44.0064	-0.337726
3067.5	43.8997	-0.337448
3070	43.7907	-0.337298
3072.5	43.683	-0.337389
3075	43.5774	-0.337405
3077.5	43.4751	-0.337186
3080	43.3681	-0.336694
3082.5	43.2641	-0.336565
3085	43.1599	-0.336854
3087.5	43.0564	-0.336731
3090	42.9542	-0.336555
3092.5	42.8506	-0.336528
3095	42.7493	-0.336239
3097.5	42.649	-0.336180
3100	42.5476	-0.336314
3102.5	42.4478	-0.336100
3105	42.3508	-0.335945
3107.5	42.252	-0.335897
3110	42.1526	-0.335811
3112.5	42.0557	-0.335854
3115	41.9593	-0.335897
3117.5	41.8608	-0.335816
3120	41.7671	-0.335651
3122.5	41.6704	-0.335527
3125	41.5765	-0.335271
3127.5	41.4832	-0.335003
3130	41.3895	-0.334982
3132.5	41.2959	-0.335073
3135	41.2048	-0.334880
3137.5	41.1115	-0.334848
3140	41.0196	-0.334757
3142.5	40.9279	-0.334623
3145	40.8364	-0.334757
3147.5	40.7481	-0.334393
3150	40.6591	-0.334238
3152.5	40.5689	-0.334083
3155	40.4809	-0.333826
3157.5	40.392	-0.333826
3160	40.3047	-0.333714
3162.5	40.2172	-0.333607
3165	40.1289	-0.333382
3167.5	40.0455	-0.333259
3170	39.9586	-0.333371
3172.5	39.8751	-0.333307
3175	39.7916	-0.333387
3177.5	39.7052	-0.333425
3180	39.6209	-0.333238
3182.5	39.5373	-0.333040
3185	39.4548	-0.333141
3187.5	39.3729	-0.333147
3190	39.2915	-0.332847
3192.5	39.2101	-0.332649
3195	39.129	-0.332430
3197.5	39.0469	-0.332585
3200	38.9677	-0.332692
3202.5	38.8889	-0.332505
3205	38.8077	-0.332462
3207.5	38.7299	-0.332211
3210	38.6509	-0.332259
3212.5	38.5732	-0.332296
3215	38.4955	-0.331954
3217.5	38.4199	-0.331841
3220	38.3414	-0.331579
3222.5	38.2671	-0.331574
3225	38.1897	-0.331718
3227.5	38.1144	-0.331579
3230	38.0392	-0.331456
3232.5	37.9623	-0.331606
3235	37.889	-0.331665
3237.5	37.8166	-0.331467
3240	37.7435	-0.331371
3242.5	37.6689	-0.331387
3245	37.5969	-0.331601
3247.5	37.5248	-0.331563
3250	37.4499	-0.330996
3252.5	37.3823	-0.330793
3255	37.312	-0.330830
3257.5	37.2412	-0.330889
3260	37.1711	-0.330868
3262.5	37.1009	-0.330729
3265	37.0322	-0.330477
3267.5	36.9622	-0.330370
3270	36.8918	-0.330515
3272.5	36.8258	-0.330252
3275	36.7559	-0.330413
3277.5	36.6892	-0.330739
3280	36.6221	-0.330365
3282.5	36.5549	-0.330183
3285	36.4873	-0.330375
3287.5	36.4222	-0.330402
3290	36.356	-0.330017
3292.5	36.2909	-0.329889
3295	36.2251	-0.329659
3297.5	36.1599	-0.329316
3300	36.0963	-0.329477
3302.5	36.0346	-0.329616
3305	35.9697	-0.329498
3307.5	35.9054	-0.329370
3310	35.8422	-0.329161
3312.5	35.7804	-0.329322
3315	35.7186	-0.329461
3317.5	35.6554	-0.329188
3320	35.5925	-0.329279
3322.5	35.532	-0.329209
3325	35.4733	-0.328792
3327.5	35.4122	-0.328984
3330	35.3539	-0.328958
3332.5	35.2912	-0.328706
3335	35.2317	-0.328797
3337.5	35.1721	-0.328861
3340	35.1124	-0.328942
3342.5	35.0536	-0.328872
3345	34.9966	-0.328910
3347.5	34.9369	-0.328669
3350	34.8804	-0.328284
3352.5	34.8205	-0.328225
3355	34.7623	-0.328182
3357.5	34.7054	-0.328289
3360	34.6504	-0.328262
3362.5	34.5935	-0.328123
3365	34.5378	-0.328091
3367.5	34.4801	-0.328257
3370	34.4232	-0.328182
3372.5	34.37	-0.328112
3375	34.3128	-0.328150
3377.5	34.259	-0.328096
3380	34.2066	-0.328139
3382.5	34.15	-0.328000
3385	34.0996	-0.328128
3387.5	34.0443	-0.328166
3390	33.989	-0.327781
3392.5	33.9381	-0.327529
3395	33.8854	-0.327524
3397.5	33.8321	-0.327599
3400	33.7802	-0.327385
3402.5	33.7264	-0.327331
3405	33.6755	-0.327492
3407.5	33.6259	-0.327465
3410	33.5731	-0.327508
3412.5	33.5232	-0.327433
3415	33.4724	-0.327187
3417.5	33.4233	-0.327010
3420	33.3723	-0.327064
3422.5	33.3232	-0.327037
3425	33.2722	-0.326828
3427.5	33.2242	-0.326727
3430	33.1771	-0.326700
3432.5	33.1277	-0.326737
3435	33.0787	-0.326732
3437.5	33.0308	-0.326673
3440	32.9837	-0.326877
3442.5	32.9352	-0.327042
3445	32.8863	-0.326604
3447.5	32.8408	-0.326566
3450	32.7929	-0.326647
3452.5	32.7446	-0.326534
3455	32.7014	-0.326614
3457.5	32.6536	-0.326277
3460	32.6077	-0.326106
3462.5	32.5621	-0.326122
3465	32.5157	-0.326384
3467.5	32.4724	-0.326379
3470	32.428	-0.326112
3472.5	32.3825	-0.326384
3475	32.3384	-0.326566
3477.5	32.2947	-0.326208
3480	32.2499	-0.325946
3482.5	32.2056	-0.326042
3485	32.1628	-0.325860
3487.5	32.1183	-0.325603
3490	32.0741	-0.325587
3492.5	32.0328	-0.325817
3495	31.9886	-0.326256
3497.5	31.9482	-0.326272
3500	31.9065	-0.325956
3502.5	31.8622	-0.325742
3505	31.823	-0.325646
3507.5	31.7801	-0.325512
3510	31.7376	-0.325384
3512.5	31.6984	-0.325427
3515	31.6563	-0.325544
3517.5	31.6158	-0.325459
3520	31.5743	-0.325534
3522.5	31.5356	-0.325507
3525	31.4972	-0.325437
3527.5	31.4565	-0.325400
3530	31.4145	-0.325165
3532.5	31.3766	-0.325213
3535	31.3365	-0.325389
3537.5	31.2975	-0.325304
3540	31.2601	-0.325272
3542.5	31.2216	-0.325330
3545	31.1841	-0.325026
3547.5	31.1452	-0.324935
3550	31.1047	-0.325186
3552.5	31.0684	-0.324828
3555	31.0317	-0.324715
3557.5	30.9932	-0.325154
3560	30.9587	-0.325047
3562.5	30.9207	-0.324902
3565	30.8819	-0.324865
3567.5	30.8473	-0.324405
3570	30.809	-0.324410
3572.5	30.7719	-0.324929
3575	30.7369	-0.324758
3577.5	30.701	-0.324421
3580	30.6662	-0.324672
3582.5	30.631	-0.324838
3585	30.5946	-0.324833
3587.5	30.5601	-0.324608
3590	30.5258	-0.324448
3592.5	30.4918	-0.324480
3595	30.4565	-0.324277
3597.5	30.4214	-0.324319
3600	30.3884	-0.324389
3602.5	30.3555	-0.324244
3605	30.3202	-0.324271
3607.5	30.2883	-0.324148
3610	30.2557	-0.324180
3612.5	30.2226	-0.324175
3615	30.1896	-0.324025
3617.5	30.1575	-0.323891
3620	30.1242	-0.324020
3622.5	30.0916	-0.324464
3625	30.0595	-0.324325
3627.5	30.0258	-0.324121
3629.6	30.0005	-0.324298