File: DSC Data Files/DSC_PU_Sample2.txt
Time(sec)	Temp(C)	DSC(mW)
0.000000	30.3447	-0.137585
2.399902	30.3047	-0.137574
4.799805	30.2609	-0.136975
7.199951	30.2304	-0.138334
9.599854	30.255	-0.152971
12	30.3941	-0.200249
14.3999	30.6388	-0.275886
16.7998	30.9601	-0.345527
19.2	31.3274	-0.386074
21.5999	31.7147	-0.399898
24	32.1142	-0.397448
26.3999	32.5211	-0.387620
28.7998	32.9288	-0.375599
31.2	33.3382	-0.364219
33.5999	33.7504	-0.353637
36	34.1605	-0.344061
38.3999	34.5706	-0.335806
40.7998	34.9816	-0.328246
43.2	35.3916	-0.321479
45.5999	35.7998	-0.315353
48	36.2095	-0.309035
50.3999	36.6216	-0.303214
52.7998	37.0333	-0.297291
55.2	37.444	-0.291273
57.5999	37.8536	-0.285479
60	38.2646	-0.279797
62.3999	38.6727	-0.274463
64.7998	39.0867	-0.269226
67.2	39.4951	-0.263619
69.5999	39.9037	-0.257996
72	40.3189	-0.252871
74.3999	40.7266	-0.247264
76.7998	41.1387	-0.241630
79.2	41.5488	-0.236366
81.5999	41.9591	-0.231466
84	42.37	-0.226565
86.3999	42.7796	-0.221188
88.7998	43.1878	-0.215849
91.2	43.5987	-0.210344
93.5999	44.0069	-0.205010
96	44.4179	-0.200061
98.3999	44.8279	-0.195386
100.8	45.2351	-0.191009
103.2	45.6444	-0.186697
105.6	46.0518	-0.182701
108	46.4635	-0.178287
110.4	46.8724	-0.173996
112.8	47.2834	-0.169700
115.2	47.6901	-0.164869
117.6	48.1009	-0.160231
120	48.5085	-0.155710
122.4	48.916	-0.151468
124.8	49.327	-0.147546
127.2	49.7374	-0.144283
129.6	50.1419	-0.140688
132	50.55	-0.136895
134.4	50.9568	-0.133283
136.8	51.3671	-0.130132
139.2	51.7737	-0.127537
141.6	52.1841	-0.124975
144	52.5942	-0.122204
146.4	53.0024	-0.119240
148.8	53.412	-0.116527
151.2	53.8213	-0.114302
153.6	54.226	-0.112039
156	54.6355	-0.110188
158.4	55.0455	-0.108663
160.8	55.4545	-0.106437
163.2	55.862	-0.103805
165.6	56.2685	-0.101708
168	56.6768	-0.100526
170.4	57.0867	-0.099322
172.8	57.4944	-0.097487
175.2	57.9024	-0.095609
177.6	58.3072	-0.094191
180	58.7137	-0.092763
182.4	59.1266	-0.091276
184.8	59.532	-0.089820
187.2	59.9363	-0.088387
189.6	60.3433	-0.086541
192	60.7487	-0.083823
194.4	61.1559	-0.080897
196.8	61.5614	-0.078115
199.2	61.9679	-0.076012
201.6	62.3783	-0.074664
204	62.7851	-0.073535
206.4	63.1904	-0.073257
208.8	63.5985	-0.073257
211.2	64.0054	-0.072957
213.6	64.4139	-0.072374
216	64.8198	-0.072299
218.4	65.2261	-0.073054
220.8	65.6353	-0.073337
223.2	66.0418	-0.073551
225.6	66.4486	-0.074364
228	66.8545	-0.075450
230.4	67.2633	-0.076173
232.8	67.6697	-0.076964
235.2	68.0799	-0.078596
237.6	68.4854	-0.080335
240	68.8915	-0.082154
242.4	69.2968	-0.083770
244.8	69.7028	-0.085080
247.2	70.1077	-0.086675
249.6	70.512	-0.088638
252	70.9166	-0.091003
254.4	71.323	-0.094090
256.8	71.7276	-0.097016
259.2	72.1347	-0.099461
261.6	72.5398	-0.102050
264	72.9446	-0.104907
266.4	73.3495	-0.107357
268.8	73.7543	-0.109941
271.2	74.1615	-0.112852
273.6	74.5655	-0.115971
276	74.9692	-0.119266
278.4	75.3736	-0.122289
280.8	75.7792	-0.126029
283.2	76.1826	-0.130202
285.6	76.589	-0.133192
288	76.9926	-0.136071
290.4	77.3949	-0.139024
292.8	77.8032	-0.142116
295.2	78.2056	-0.145866
297.6	78.6095	-0.149825
300	79.0158	-0.155207
302.4	79.4202	-0.161831
304.8	79.8268	-0.167379
307.2	80.2311	-0.170958
309.6	80.6369	-0.173793
312	81.0438	-0.176441
314.4	81.4473	-0.179202
316.8	81.8529	-0.182053
319.2	82.2562	-0.185076
321.6	82.659	-0.188736
324	83.0686	-0.192678
326.4	83.4737	-0.196771
328.8	83.8741	-0.200832
331.2	84.2809	-0.204678
333.6	84.6844	-0.208188
336	85.0896	-0.212051
338.4	85.4909	-0.216710
340.8	85.8924	-0.221108
343.2	86.2979	-0.225228
345.6	86.6979	-0.229299
348	87.1017	-0.233311
350.4	87.507	-0.237623
352.8	87.9116	-0.241582
355.2	88.3149	-0.245477
357.6	88.718	-0.249083
360	89.1202	-0.252598
362.4	89.5235	-0.256231
364.8	89.9256	-0.259815
367.2	90.3291	-0.263726
369.6	90.7355	-0.267572
372	91.1399	-0.271114
374.4	91.5473	-0.274704
376.8	91.9488	-0.278085
379.2	92.3539	-0.281584
381.6	92.7563	-0.284992
384	93.1586	-0.288314
386.4	93.5606	-0.291658
388.8	93.966	-0.295290
391.2	94.3658	-0.298784
393.6	94.7717	-0.302385
396	95.1736	-0.306237
398.4	95.5755	-0.309249
400.8	95.9785	-0.312111
403.2	96.3813	-0.315385
405.6	96.7821	-0.319028
408	97.1839	-0.322661
410.4	97.5868	-0.326192
412.8	97.9869	-0.329134
415.2	98.3896	-0.332050
417.6	98.7899	-0.335388
420	99.193	-0.338743
422.4	99.5968	-0.341883
424.8	99.9972	-0.345125
427.2	100.399	-0.348437
429.6	100.801	-0.351379
432	101.203	-0.353498
434.4	101.606	-0.356184
436.8	102.009	-0.359699
439.2	102.408	-0.362646
441.6	102.809	-0.365059
444	103.211	-0.367814
446.4	103.613	-0.370837
448.8	104.015	-0.373314
451.2	104.414	-0.376176
453.6	104.815	-0.378552
456	105.216	-0.381013
458.4	105.622	-0.384116
460.8	106.023	-0.387171
463.2	106.423	-0.389482
465.6	106.828	-0.391515
468	107.227	-0.393628
470.4	107.629	-0.395944
472.8	108.03	-0.398149
475.2	108.43	-0.400775
477.6	108.831	-0.403263
480	109.231	-0.405820
482.4	109.632	-0.408463
484.8	110.034	-0.410919
487.2	110.434	-0.413343
489.6	110.834	-0.416606
492	111.237	-0.419618
494.4	111.638	-0.421870
496.8	112.037	-0.424390
499.2	112.437	-0.426980
501.6	112.835	-0.430227
504	113.237	-0.434095
506.4	113.634	-0.437936
508.8	114.029	-0.442981
511.2	114.43	-0.449546
513.6	114.829	-0.456554
516	115.228	-0.464445
518.4	115.629	-0.472695
520.8	116.032	-0.480265
523.2	116.43	-0.487065
525.6	116.83	-0.492345
528	117.229	-0.493998
530.4	117.631	-0.491120
532.8	118.028	-0.484486
535.2	118.427	-0.476665
537.6	118.826	-0.469827
540	119.226	-0.465162
542.4	119.626	-0.462557
544.8	120.024	-0.460775
547.2	120.423	-0.459625
549.6	120.823	-0.459256
552	121.221	-0.459716
554.4	121.622	-0.460010
556.8	122.018	-0.460074
559.2	122.417	-0.460845
561.6	122.815	-0.462155
564	123.214	-0.463359
566.4	123.61	-0.464402
568.8	124.009	-0.465724
571.2	124.407	-0.466997
573.6	124.803	-0.467880
576	125.204	-0.468875
578.4	125.602	-0.470095
580.8	125.998	-0.470892
583.2	126.396	-0.471464
585.6	126.792	-0.472529
588	127.192	-0.473567
590.4	127.589	-0.474567
592.8	127.985	-0.475134
595.2	128.382	-0.475552
597.6	128.778	-0.476317
600	129.175	-0.477328
602.4	129.572	-0.478253
604.8	129.966	-0.479521
607.2	130.364	-0.480452
609.6	130.761	-0.481421
612	131.155	-0.482549
614.4	131.552	-0.483716
616.8	131.948	-0.484839
619.2	132.345	-0.485315
621.6	132.742	-0.485310
624	133.134	-0.485749
626.4	133.533	-0.486696
628.8	133.929	-0.487493
631.2	134.325	-0.488242
633.6	134.722	-0.488552
636	135.115	-0.488937
638.4	135.514	-0.489793
640.8	135.909	-0.490810
643.2	136.304	-0.490869
645.6	136.702	-0.490863
648	137.098	-0.491275
650.4	137.493	-0.491457
652.8	137.886	-0.492147
655.2	138.282	-0.492875
657.6	138.678	-0.493190
660	139.072	-0.494009
662.4	139.466	-0.495100
664.8	139.863	-0.495758
667.2	140.257	-0.496861
669.6	140.654	-0.497834
672	141.051	-0.497797
674.4	141.445	-0.497321
676.8	141.84	-0.497139
679.2	142.233	-0.497652
681.6	142.627	-0.498182
684	143.023	-0.498663
686.4	143.414	-0.499273
688.8	143.808	-0.500317
691.2	144.201	-0.500996
693.6	144.594	-0.501328
696	144.989	-0.501997
698.4	145.387	-0.503131
700.8	145.778	-0.503799
703.2	146.17	-0.503832
705.6	146.564	-0.503746
708	146.955	-0.503703
710.4	147.351	-0.504318
712.8	147.742	-0.504944
715.2	148.135	-0.505533
717.6	148.531	-0.505923
720	148.921	-0.506405
722.4	149.311	-0.507052
724.8	149.704	-0.507865
727.2	150.098	-0.508481
729.6	150.491	-0.508834
732	150.882	-0.509395
734.4	151.275	-0.510043
736.8	151.67	-0.510476
739.2	152.062	-0.510872
741.6	152.455	-0.511273
744	152.848	-0.512172
746.4	153.24	-0.513108
748.8	153.633	-0.514125
751.2	154.027	-0.515013
753.6	154.42	-0.515794
756	154.816	-0.515564
758.4	155.208	-0.515848
760.8	155.602	-0.516827
763.2	155.995	-0.517506
765.6	156.387	-0.518228
768	156.783	-0.519132
770.4	157.174	-0.519566
772.8	157.571	-0.520218
775.2	157.966	-0.521235
777.6	158.36	-0.521963
780	158.756	-0.522219
782.4	159.152	-0.522610
784.8	159.547	-0.523375
787.2	159.943	-0.524316
789.6	160.336	-0.525066
792	160.731	-0.524878
794.4	161.128	-0.525114
796.8	161.524	-0.525895
799.2	161.922	-0.526670
801.6	162.317	-0.528056
804	162.715	-0.529640
806.4	163.112	-0.530442
808.8	163.51	-0.530656
811.2	163.904	-0.531111
813.6	164.304	-0.531897
816	164.702	-0.532657
818.4	165.1	-0.533246
820.8	165.502	-0.534171
823.2	165.899	-0.534963
825.6	166.299	-0.535723
828	166.698	-0.536605
830.4	167.097	-0.537745
832.8	167.5	-0.539157
835.2	167.899	-0.539473
837.6	168.3	-0.539569
840	168.698	-0.540414
842.4	169.098	-0.541961
844.8	169.498	-0.543100
847.2	169.899	-0.543512
849.6	170.3	-0.544101
852	170.704	-0.545149
854.4	171.102	-0.545545
856.8	171.503	-0.546027
859.2	171.904	-0.546578
861.6	172.306	-0.547594
864	172.706	-0.548793
866.4	173.108	-0.549483
868.8	173.509	-0.550815
871.2	173.912	-0.552061
873.6	174.311	-0.552644
876	174.712	-0.553345
878.4	175.114	-0.554854
880.8	175.514	-0.556539
883.2	175.915	-0.558316
885.6	176.317	-0.560493
888	176.717	-0.568288
890.4	177.121	-0.597643
892.8	177.519	-0.634461
895.2	177.92	-0.656011
897.6	178.324	-0.668562
900	178.725	-0.676672
902.4	179.126	-0.682177
904.8	179.531	-0.685874
907.2	179.934	-0.687661
909.6	180.338	-0.688833
912	180.741	-0.689807
914.4	181.141	-0.690673
916.8	181.546	-0.691240
919.2	181.947	-0.692011
921.6	182.349	-0.693214
924	182.75	-0.695306
926.4	183.155	-0.697270
928.8	183.558	-0.697853
931.2	183.958	-0.698506
933.6	184.363	-0.699709
936	184.766	-0.700426
938.4	185.17	-0.701560
940.8	185.57	-0.702288
943.2	185.976	-0.702625
945.6	186.377	-0.703053
948	186.781	-0.703781
950.4	187.186	-0.704920
952.8	187.587	-0.706092
955.2	187.992	-0.707991
957.6	188.398	-0.710056
960	188.798	-0.710950
962.4	189.202	-0.711324
964.8	189.604	-0.711800
967.2	190.009	-0.713373
969.6	190.411	-0.714769
972	190.816	-0.715310
974.4	191.217	-0.716588
976.8	191.619	-0.718102
979.2	192.023	-0.719285
981.6	192.428	-0.719921
984	192.831	-0.720943
986.4	193.233	-0.722420
988.8	193.637	-0.723163
991.2	194.041	-0.723768
993.6	194.444	-0.724742
996	194.848	-0.725469
998.4	195.25	-0.726085
1000.8	195.656	-0.725812
1003.2	196.059	-0.725036
1005.6	196.461	-0.724859
1008	196.87	-0.725566
1010.4	197.272	-0.725785
1012.8	197.677	-0.726475
1015.2	198.08	-0.727155
1017.6	198.484	-0.727427
1020	198.889	-0.728198
1022.4	199.293	-0.729444
1024.8	199.697	-0.730825
1027.2	200.103	-0.731659
1029.6	200.503	-0.732087
1032	200.906	-0.732761
1034.4	201.31	-0.734142
1036.8	201.713	-0.735281
1039.2	202.118	-0.735190
1041.6	202.521	-0.734564
1044	202.923	-0.734436
1046.4	203.327	-0.735319
1048.8	203.731	-0.737116
1051.2	204.134	-0.738759
1053.6	204.539	-0.738898
1056	204.943	-0.738978
1058.4	205.344	-0.740166
1060.8	205.748	-0.741187
1063.2	206.151	-0.742060
1065.6	206.556	-0.742322
1068	206.959	-0.742718
1070.4	207.362	-0.743884
1072.8	207.77	-0.744761
1075.2	208.173	-0.745585
1077.6	208.576	-0.745810
1080	208.979	-0.745591
1082.4	209.386	-0.746987
1084.8	209.789	-0.748014
1087.2	210.196	-0.747570
1089.6	210.601	-0.747356
1092	211.009	-0.747458
1094.4	211.413	-0.748249
1096.8	211.815	-0.748763
1099.2	212.222	-0.748725
1101.6	212.626	-0.749052
1104	213.03	-0.750084
1106.4	213.435	-0.751534
1108.8	213.841	-0.753129
1111.2	214.247	-0.754113
1113.6	214.651	-0.753985
1116	215.052	-0.754086
1118.4	215.457	-0.755129
1120.8	215.859	-0.756408
1123.2	216.263	-0.757976
1125.6	216.666	-0.759094
1128	217.068	-0.759848
1130.4	217.474	-0.761400
1132.8	217.878	-0.763176
1135.2	218.282	-0.764380
1137.6	218.687	-0.765407
1140	219.091	-0.766755
1142.4	219.495	-0.768114
1144.8	219.867	-0.762994
1147.2	220.126	-0.715235
1149.6	220.267	-0.605780
1152	220.335	-0.483908
1154.4	220.366	-0.396993
1156.8	220.383	-0.347404
1159.2	220.393	-0.322163
1161.6	220.398	-0.309265
1164	220.399	-0.301801
1166.4	220.402	-0.297923
1168.8	220.403	-0.296521
1171.2	220.402	-0.295440
1173.6	220.402	-0.294269
1176	220.402	-0.293493
1178.4	220.403	-0.293493
1180.8	220.404	-0.293370
1183.2	220.405	-0.292733
1185.6	220.406	-0.292327
1188	220.406	-0.292316
1190.4	220.405	-0.292733
1192.8	220.405	-0.292605
1195.2	220.408	-0.292364
1197.6	220.407	-0.292910
1200	220.408	-0.292760
1202.4	220.41	-0.292113
1204.8	220.41	-0.291818
1207.2	220.413	-0.291845
1209.6	220.411	-0.292064
1212	220.412	-0.292369
1214.4	220.416	-0.293044
1216.8	220.416	-0.293413
1219.2	220.418	-0.293156
1221.6	220.419	-0.292498
1224	220.42	-0.292535
1226.4	220.423	-0.293707
1228.8	220.424	-0.295018
1231.2	220.426	-0.295398
1233.6	220.429	-0.294269
1236	220.43	-0.292396
1238.4	220.429	-0.291085
1240.8	220.43	-0.290679
1243.2	220.431	-0.290695
1245.6	220.431	-0.290566
1248	220.433	-0.290352
1250.4	220.43	-0.290449
1252.8	220.433	-0.291139
1255.2	220.434	-0.291572
1257.6	220.435	-0.291315
1260	220.437	-0.290989
1262.4	220.438	-0.290342
1264.8	220.439	-0.290251
1267.2	220.438	-0.290470
1269.6	220.439	-0.289882
1272	220.441	-0.289502
1274.4	220.44	-0.290058
1276.8	220.442	-0.291064
1279.2	220.445	-0.290684
1281.6	220.442	-0.290240
1284	220.445	-0.290021
1286.4	220.445	-0.289149
1288.8	220.444	-0.288742
1291.2	220.447	-0.289518
1293.6	220.444	-0.290021
1296	220.447	-0.289860
1298.4	220.448	-0.289047
1300.8	220.446	-0.288550
1303.2	220.452	-0.288705
1305.6	220.449	-0.289149
1308	220.45	-0.289427
1310.4	220.453	-0.289020
1312.8	220.45	-0.288780
1315.2	220.452	-0.288689
1317.6	220.454	-0.288924
1320	220.453	-0.289684
1322.4	220.455	-0.289914
1324.8	220.456	-0.288983
1327.2	220.456	-0.288464
1329.6	220.457	-0.288592
1332	220.456	-0.288630
1334.4	220.457	-0.288389
1336.8	220.459	-0.288336
1339.2	220.458	-0.288630
1341.6	220.46	-0.288769
1344	220.461	-0.288453
1346.4	220.462	-0.287731
1348.8	220.461	-0.287025
1351.2	220.462	-0.286773
1353.6	220.462	-0.287298
1356	220.463	-0.287763
1358.4	220.464	-0.287357
1360.8	220.466	-0.286875
1363.2	220.467	-0.287019
1365.6	220.468	-0.287447
1368	220.47	-0.287742
1370.4	220.472	-0.288122
1372.8	220.474	-0.287250
1375.2	220.473	-0.286126
1377.6	220.472	-0.285414
1380	220.472	-0.285249
1382.4	220.471	-0.285570
1384.8	220.473	-0.286051
1387.2	220.472	-0.286838
1389.6	220.472	-0.287554
1392	220.476	-0.287480
1394.4	220.475	-0.286319
1396.8	220.474	-0.285340
1399.2	220.475	-0.284639
1401.6	220.475	-0.284719
1404	220.476	-0.285061
1406.4	220.479	-0.285955
1408.8	220.477	-0.286929
1411.2	220.481	-0.286891
1413.6	220.479	-0.285885
1416	220.481	-0.284960
1418.4	220.484	-0.284505
1420.8	220.481	-0.285302
1423.2	220.482	-0.285810
1425.6	220.483	-0.285275
1428	220.482	-0.285366
1430.4	220.483	-0.285575
1432.8	220.482	-0.285532
1435.2	220.482	-0.285420
1437.6	220.483	-0.285152
1440	220.485	-0.284665
1442.4	220.485	-0.283767
1444.8	220.486	-0.283981
1447.2	220.483	-0.284858
1449.6	220.485	-0.284628
1452	220.485	-0.284082
1454.4	220.486	-0.284157
1456.8	220.487	-0.284072
1459.2	220.486	-0.284157
1461.6	220.489	-0.284633
1464	220.487	-0.285329
1466.4	220.489	-0.285372
1468.8	220.488	-0.284922
1471.2	220.488	-0.284660
1473.6	220.489	-0.284542
1476	220.49	-0.284173
1478.4	220.49	-0.283082
1480.8	220.491	-0.282242
1483.2	220.489	-0.282649
1485.6	220.49	-0.282761
1488	220.49	-0.283007
1490.4	220.491	-0.283323
1492.8	220.491	-0.283435
1495.2	220.492	-0.283879
1497.6	220.491	-0.284280
1500	220.494	-0.283221
1502.4	220.495	-0.282205
1504.8	220.498	-0.282354
1507.2	220.496	-0.282675
1509.6	220.495	-0.282408
1512	220.495	-0.282472
1514.4	220.496	-0.282761
1516.8	220.495	-0.282520
1519.2	220.495	-0.281921
1521.6	220.492	-0.281429
1524	220.495	-0.281252
1526.4	220.496	-0.281514
1528.8	220.496	-0.282279
1531.2	220.499	-0.282713
1533.6	220.496	-0.282322
1536	220.499	-0.282130
1538.4	220.498	-0.282322
1540.8	220.498	-0.282777
1543.2	220.499	-0.282916
1545.6	220.499	-0.282600
1548	220.498	-0.282322
1550.4	220.5	-0.281862
1552.8	220.502	-0.282156
1555.2	220.503	-0.282360
1557.6	220.5	-0.281926
1560	220.502	-0.281916
1562.4	220.502	-0.282130
1564.8	220.502	-0.281584
1567.2	220.501	-0.280530
1569.6	220.503	-0.280476
1572	220.502	-0.280578
1574.4	220.502	-0.280669
1576.8	220.505	-0.280974
1579.2	220.506	-0.281113
1581.6	220.508	-0.281332
1584	220.508	-0.281316
1586.4	220.508	-0.281028
1588.8	220.509	-0.280246
1591.2	220.508	-0.279535
1593.6	220.51	-0.279230
1596	220.51	-0.279663
1598.4	220.509	-0.279995
1600.8	220.509	-0.279867
1603.2	220.51	-0.280418
1605.6	220.509	-0.281001
1608	220.513	-0.281231
1610.4	220.514	-0.281011
1612.8	220.516	-0.281028
1615.2	220.514	-0.280776
1617.6	220.514	-0.279744
1620	220.514	-0.279005
1622.4	220.513	-0.278518
1624.8	220.512	-0.278176
1627.2	220.512	-0.278636
1629.6	220.512	-0.279043
1632	220.513	-0.279182
1634.4	220.513	-0.279663
1636.8	220.513	-0.279332
1639.2	220.514	-0.278995
1641.6	220.512	-0.279096
1644	220.514	-0.279219
1646.4	220.513	-0.279332
1648.8	220.514	-0.279439
1651.2	220.518	-0.279503
1653.6	220.519	-0.279262
1656	220.518	-0.278850
1658.4	220.521	-0.278551
1660.8	220.519	-0.278358
1663.2	220.521	-0.277914
1665.6	220.521	-0.278080
1668	220.519	-0.278320
1670.4	220.522	-0.277850
1672.8	220.522	-0.277497
1675.2	220.52	-0.278026
1677.6	220.523	-0.278080
1680	220.522	-0.277823
1682.4	220.524	-0.278674
1684.8	220.523	-0.278904
1687.2	220.525	-0.278561
1689.6	220.523	-0.278294
1692	220.524	-0.278422
1694.4	220.524	-0.278347
1696.8	220.528	-0.277470
1699.2	220.528	-0.277240
1701.6	220.531	-0.277914
1704	220.527	-0.278117
1706.4	220.525	-0.277481
1708.8	220.527	-0.277759
1711.2	220.526	-0.277978
1713.6	220.527	-0.277737
1716	220.53	-0.277989
1718.4	220.528	-0.277828
1720.8	220.529	-0.277341
1723.2	220.53	-0.277775
1725.6	220.53	-0.277930
1728	220.531	-0.277887
1730.4	220.531	-0.278016
1732.8	220.532	-0.277497
1735.2	220.533	-0.276630
1737.6	220.53	-0.276539
1740	220.534	-0.276635
1742.4	220.533	-0.276758
1744.8	220.502	-0.272222
1747.2	220.384	-0.229716
1749.6	220.185	-0.137092
1752	219.893	-0.056415
1754.4	219.532	-0.029184
1756.8	219.147	-0.031281
1759.2	218.754	-0.047454
1761.6	218.359	-0.071031
1764	217.961	-0.091853
1766.4	217.561	-0.105357
1768.8	217.159	-0.106480
1771.2	216.756	-0.096272
1773.6	216.358	-0.077478
1776	215.958	-0.050696
1778.4	215.56	-0.017157
1780.8	215.161	0.018714
1783.2	214.763	0.051729
1785.6	214.364	0.079078
1788	213.956	0.099284
1790.4	213.559	0.111573
1792.8	213.153	0.116158
1795.2	212.747	0.114050
1797.6	212.346	0.107443
1800	211.941	0.097048
1802.4	211.54	0.084117
1804.8	211.136	0.070090
1807.2	210.725	0.055179
1809.6	210.325	0.041093
1812	209.919	0.027386
1814.4	209.517	0.014605
1816.8	209.111	0.003338
1819.2	208.708	-0.006463
1821.6	208.308	-0.015991
1824	207.901	-0.024947
1826.4	207.496	-0.033116
1828.8	207.091	-0.040414
1831.2	206.69	-0.046475
1833.6	206.285	-0.052146
1836	205.883	-0.057485
1838.4	205.48	-0.061754
1840.8	205.08	-0.065922
1843.2	204.676	-0.070122
1845.6	204.272	-0.073904
1848	203.871	-0.076675
1850.4	203.466	-0.078628
1852.8	203.064	-0.080592
1855.2	202.665	-0.082384
1857.6	202.265	-0.084021
1860	201.859	-0.085492
1862.4	201.456	-0.086642
1864.8	201.053	-0.087167
1867.2	200.653	-0.087579
1869.6	200.251	-0.088263
1872	199.849	-0.089259
1874.4	199.445	-0.090318
1876.8	199.044	-0.090682
1879.2	198.64	-0.090125
1881.6	198.239	-0.089355
1884	197.837	-0.088547
1886.4	197.434	-0.087407
1888.8	197.032	-0.086937
1891.2	196.631	-0.086953
1893.6	196.229	-0.086359
1896	195.828	-0.085096
1898.4	195.426	-0.083737
1900.8	195.025	-0.082100
1903.2	194.624	-0.080078
1905.6	194.219	-0.078446
1908	193.818	-0.077178
1910.4	193.416	-0.076221
1912.8	193.013	-0.074717
1915.2	192.611	-0.073749
1917.6	192.21	-0.072914
1920	191.809	-0.071812
1922.4	191.407	-0.070946
1924.8	191.006	-0.069030
1927.2	190.603	-0.067153
1929.6	190.206	-0.065954
1932	189.801	-0.065211
1934.4	189.399	-0.064510
1936.8	188.995	-0.063349
1939.2	188.593	-0.062231
1941.6	188.195	-0.060856
1944	187.79	-0.059277
1946.4	187.389	-0.057731
1948.8	186.99	-0.056356
1951.2	186.588	-0.055158
1953.6	186.188	-0.053735
1956	185.785	-0.052178
1958.4	185.383	-0.050701
1960.8	184.982	-0.049220
1963.2	184.583	-0.047010
1965.6	184.182	-0.044415
1968	183.78	-0.042650
1970.4	183.377	-0.041270
1972.8	182.979	-0.039606
1975.2	182.577	-0.038279
1977.6	182.176	-0.037209
1980	181.777	-0.035962
1982.4	181.377	-0.034764
1984.8	180.977	-0.033443
1987.2	180.58	-0.032768
1989.6	180.178	-0.031645
1992	179.778	-0.030013
1994.4	179.376	-0.028451
1996.8	178.978	-0.027087
1999.2	178.577	-0.025739
2001.6	178.174	-0.023657
2004	177.775	-0.021710
2006.4	177.372	-0.020159
2008.8	176.97	-0.019319
2011.2	176.571	-0.018901
2013.6	176.171	-0.018227
2016	175.774	-0.017623
2018.4	175.375	-0.016596
2020.8	174.977	-0.015729
2023.2	174.576	-0.014894
2025.6	174.175	-0.013567
2028	173.774	-0.013305
2030.4	173.378	-0.014343
2032.8	172.978	-0.013867
2035.2	172.579	-0.012273
2037.6	172.176	-0.011080
2040	171.779	-0.009881
2042.4	171.383	-0.008533
2044.8	170.981	-0.007511
2047.2	170.583	-0.006249
2049.6	170.185	-0.004606
2052	169.784	-0.003322
2054.4	169.385	-0.002306
2056.8	168.988	-0.001455
2059.2	168.589	-0.000733
2061.6	168.193	-0.000155
2064	167.793	0.000851
2066.4	167.396	0.002022
2068.8	166.997	0.002563
2071.2	166.599	0.003189
2073.6	166.202	0.003552
2076	165.805	0.003986
2078.4	165.407	0.005018
2080.8	165.011	0.005692
2083.2	164.613	0.006805
2085.6	164.218	0.007961
2088	163.823	0.008581
2090.4	163.424	0.009047
2092.8	163.03	0.009341
2095.2	162.634	0.009560
2097.6	162.24	0.009972
2100	161.844	0.010523
2102.4	161.451	0.011106
2104.8	161.055	0.011786
2107.2	160.663	0.011759
2109.6	160.268	0.011444
2112	159.873	0.011609
2114.4	159.482	0.012155
2116.8	159.086	0.012679
2119.2	158.694	0.013439
2121.6	158.299	0.013712
2124	157.907	0.013589
2126.4	157.516	0.013723
2128.8	157.122	0.013937
2131.2	156.731	0.014204
2133.6	156.336	0.014381
2136	155.948	0.014397
2138.4	155.556	0.014284
2140.8	155.163	0.014664
2143.2	154.772	0.015279
2145.6	154.382	0.015547
2148	153.986	0.016628
2150.4	153.597	0.017516
2152.8	153.202	0.017072
2155.2	152.812	0.017007
2157.6	152.422	0.016965
2160	152.033	0.016874
2162.4	151.641	0.016735
2164.8	151.252	0.016542
2167.2	150.86	0.016419
2169.6	150.47	0.016708
2172	150.08	0.017205
2174.4	149.69	0.017350
2176.8	149.299	0.017452
2179.2	148.906	0.017970
2181.6	148.517	0.018163
2184	148.125	0.018206
2186.4	147.736	0.017847
2188.8	147.346	0.017649
2191.2	146.955	0.017714
2193.6	146.566	0.017756
2196	146.177	0.017773
2198.4	145.783	0.017970
2200.8	145.393	0.018607
2203.2	144.999	0.019260
2205.6	144.609	0.019731
2208	144.218	0.020052
2210.4	143.825	0.020533
2212.8	143.434	0.020474
2215.2	143.043	0.020084
2217.6	142.651	0.020030
2220	142.261	0.020185
2222.4	141.869	0.020169
2224.8	141.477	0.020127
2227.2	141.087	0.019977
2229.6	140.692	0.019747
2232	140.301	0.019731
2234.4	139.908	0.020453
2236.8	139.516	0.020977
2239.2	139.126	0.020747
2241.6	138.732	0.020870
2244	138.341	0.021394
2246.4	137.946	0.021528
2248.8	137.552	0.021218
2251.2	137.162	0.021277
2253.6	136.767	0.021721
2256	136.376	0.021501
2258.4	135.982	0.021191
2260.8	135.59	0.021405
2263.2	135.195	0.021330
2265.6	134.8	0.021346
2268	134.409	0.021892
2270.4	134.015	0.022074
2272.8	133.62	0.021785
2275.2	133.225	0.021887
2277.6	132.833	0.022101
2280	132.439	0.022266
2282.4	132.044	0.021983
2284.8	131.652	0.021614
2287.2	131.257	0.021405
2289.6	130.865	0.021352
2292	130.471	0.021229
2294.4	130.076	0.020908
2296.8	129.681	0.020576
2299.2	129.284	0.020383
2301.6	128.89	0.019977
2304	128.494	0.019763
2306.4	128.105	0.019265
2308.8	127.711	0.018746
2311.2	127.32	0.018612
2313.6	126.92	0.019003
2316	126.527	0.019185
2318.4	126.132	0.018923
2320.8	125.738	0.018826
2323.2	125.347	0.018666
2325.6	124.949	0.018019
2328	124.554	0.017633
2330.4	124.159	0.017569
2332.8	123.763	0.017387
2335.2	123.368	0.017061
2337.6	122.978	0.016563
2340	122.577	0.016467
2342.4	122.182	0.016355
2344.8	121.784	0.016002
2347.2	121.391	0.015510
2349.6	120.993	0.014621
2352	120.597	0.014129
2354.4	120.203	0.014242
2356.8	119.808	0.014830
2359.2	119.415	0.015279
2361.6	119.019	0.015301
2364	118.623	0.014948
2366.4	118.227	0.014712
2368.8	117.829	0.014279
2371.2	117.433	0.013648
2373.6	117.036	0.013284
2376	116.64	0.013097
2378.4	116.244	0.013129
2380.8	115.847	0.012765
2383.2	115.45	0.013134
2385.6	115.052	0.013177
2388	114.654	0.012754
2390.4	114.256	0.012658
2392.8	113.861	0.012401
2395.2	113.462	0.011973
2397.6	113.064	0.011470
2400	112.665	0.010946
2402.4	112.269	0.010122
2404.8	111.873	0.008517
2407.2	111.477	0.007463
2409.6	111.079	0.006944
2412	110.684	0.006078
2414.4	110.285	0.005222
2416.8	109.89	0.004735
2419.2	109.492	0.004136
2421.6	109.093	0.002809
2424	108.701	0.001573
2426.4	108.302	0.000781
2428.8	107.906	-0.000112
2431.2	107.511	-0.000883
2433.6	107.111	-0.001321
2436	106.715	-0.002274
2438.4	106.322	-0.004644
2440.8	105.925	-0.008779
2443.2	105.53	-0.010999
2445.6	105.132	-0.010593
2448	104.73	-0.009352
2450.4	104.334	-0.012481
2452.8	103.935	-0.021336
2455.2	103.539	-0.024005
2457.6	103.145	-0.018591
2460	102.747	-0.015536
2462.4	102.351	-0.014209
2464.8	101.951	-0.013418
2467.2	101.555	-0.013241
2469.6	101.16	-0.013525
2472	100.763	-0.013888
2474.4	100.367	-0.014333
2476.8	99.9702	-0.015151
2479.2	99.5743	-0.016109
2481.6	99.1807	-0.017066
2484	98.7839	-0.018061
2486.4	98.3887	-0.019474
2488.8	97.9941	-0.020694
2491.2	97.5992	-0.021389
2493.6	97.2061	-0.022159
2496	96.8116	-0.023320
2498.4	96.4171	-0.024171
2500.8	96.0236	-0.024867
2503.2	95.6289	-0.025760
2505.6	95.2354	-0.026386
2508	94.8432	-0.027542
2510.4	94.4499	-0.028472
2512.8	94.0603	-0.029275
2515.2	93.6699	-0.030227
2517.6	93.2784	-0.031340
2520	92.89	-0.032474
2522.4	92.5044	-0.033341
2524.8	92.1125	-0.034213
2527.2	91.7285	-0.035470
2529.6	91.3424	-0.037214
2532	90.9604	-0.038734
2534.4	90.5783	-0.040563
2536.8	90.1982	-0.042441
2539.2	89.8235	-0.044207
2541.6	89.4484	-0.046293
2544	89.0762	-0.048251
2546.4	88.7075	-0.050006
2548.8	88.338	-0.051932
2551.2	87.9711	-0.054083
2553.6	87.6074	-0.056367
2556	87.2431	-0.058224
2558.4	86.886	-0.060289
2560.8	86.5285	-0.062610
2563.2	86.1724	-0.064633
2565.6	85.8186	-0.066676
2568	85.466	-0.068560
2570.4	85.119	-0.070352
2572.8	84.7707	-0.073027
2575.2	84.4206	-0.075627
2577.6	84.0767	-0.077414
2580	83.7348	-0.079468
2582.4	83.395	-0.081763
2584.8	83.056	-0.083759
2587.2	82.7197	-0.086172
2589.6	82.3866	-0.088296
2592	82.0535	-0.089767
2594.4	81.7216	-0.091393
2596.8	81.3948	-0.093314
2599.2	81.067	-0.094983
2601.6	80.7433	-0.096872
2604	80.4223	-0.098760
2606.4	80.1007	-0.100044
2608.8	79.7849	-0.101756
2611.2	79.4692	-0.103420
2613.6	79.1557	-0.104875
2616	78.8471	-0.106726
2618.4	78.539	-0.108599
2620.8	78.231	-0.109995
2623.2	77.9263	-0.111504
2625.6	77.6228	-0.113194
2628	77.3224	-0.114457
2630.4	77.024	-0.116078
2632.8	76.7251	-0.118164
2635.2	76.4309	-0.119887
2637.6	76.1366	-0.121251
2640	75.8455	-0.122953
2642.4	75.5527	-0.124648
2644.8	75.2644	-0.126077
2647.2	74.9793	-0.127768
2649.6	74.6963	-0.129282
2652	74.4109	-0.130667
2654.4	74.1311	-0.132181
2656.8	73.8519	-0.133792
2659.2	73.5729	-0.135161
2661.6	73.296	-0.136493
2664	73.0207	-0.138393
2666.4	72.7503	-0.139618
2668.8	72.479	-0.140763
2671.2	72.2103	-0.142052
2673.6	71.9429	-0.143325
2676	71.677	-0.144582
2678.4	71.4128	-0.146118
2680.8	71.1508	-0.147589
2683.2	70.8873	-0.148862
2685.6	70.6297	-0.150264
2688	70.3699	-0.151789
2690.4	70.1136	-0.153201
2692.8	69.8599	-0.154378
2695.2	69.6039	-0.155994
2697.6	69.3501	-0.157396
2700	69.1003	-0.158514
2702.4	68.8483	-0.159974
2704.8	68.6012	-0.161419
2707.2	68.3536	-0.162692
2709.6	68.1081	-0.164013
2712	67.8647	-0.165469
2714.4	67.6209	-0.166827
2716.8	67.3807	-0.167967
2719.2	67.1404	-0.169096
2721.6	66.9009	-0.170294
2724	66.6665	-0.171332
2726.4	66.4307	-0.172654
2728.8	66.1966	-0.173916
2731.2	65.9632	-0.175115
2733.6	65.7318	-0.176227
2736	65.5038	-0.177035
2738.4	65.2737	-0.178159
2740.8	65.047	-0.179421
2743.2	64.8235	-0.180588
2745.6	64.5973	-0.182262
2748	64.3765	-0.183637
2750.4	64.1564	-0.184488
2752.8	63.9367	-0.185670
2755.2	63.7191	-0.186933
2757.6	63.5039	-0.187746
2760	63.2856	-0.188693
2762.4	63.0735	-0.190271
2764.8	62.8615	-0.191384
2767.2	62.65	-0.192229
2769.6	62.4391	-0.193524
2772	62.2297	-0.194674
2774.4	62.0215	-0.195444
2776.8	61.8141	-0.196477
2779.2	61.6091	-0.197493
2781.6	61.4056	-0.198665
2784	61.2015	-0.199890
2786.4	61.0005	-0.201094
2788.8	60.8004	-0.201907
2791.2	60.6001	-0.203202
2793.6	60.4011	-0.204127
2796	60.2041	-0.204710
2798.4	60.0083	-0.205524
2800.8	59.8134	-0.206818
2803.2	59.6147	-0.207519
2805.6	59.4215	-0.208209
2808	59.2286	-0.209616
2810.4	59.0336	-0.210724
2812.8	58.845	-0.211591
2815.2	58.6536	-0.212473
2817.6	58.4666	-0.212992
2820	58.279	-0.213672
2822.4	58.0917	-0.214854
2824.8	57.9067	-0.215624
2827.2	57.7213	-0.216224
2829.6	57.5376	-0.217235
2832	57.357	-0.218107
2834.4	57.174	-0.218872
2836.8	56.9932	-0.220134
2839.2	56.8156	-0.220990
2841.6	56.6362	-0.221392
2844	56.4598	-0.221932
2846.4	56.2829	-0.222970
2848.8	56.1074	-0.223997
2851.2	55.9342	-0.224559
2853.6	55.7605	-0.225554
2856	55.586	-0.226356
2858.4	55.4165	-0.226822
2860.8	55.2453	-0.227753
2863.2	55.0754	-0.228833
2865.6	54.9084	-0.229984
2868	54.7428	-0.230674
2870.4	54.5778	-0.231653
2872.8	54.4127	-0.232755
2875.2	54.2494	-0.233670
2877.6	54.0875	-0.234750
2880	53.9239	-0.235644
2882.4	53.7611	-0.236452
2884.8	53.6041	-0.237244
2887.2	53.4455	-0.238009
2889.6	53.2872	-0.238822
2892	53.1286	-0.239881
2894.4	52.9732	-0.240603
2896.8	52.8169	-0.241283
2899.2	52.6628	-0.242315
2901.6	52.5077	-0.243252
2904	52.357	-0.244322
2906.4	52.2056	-0.245145
2908.8	52.0536	-0.245868
2911.2	51.9006	-0.246590
2913.6	51.7552	-0.247446
2916	51.6057	-0.248291
2918.4	51.4587	-0.248992
2920.8	51.3122	-0.249891
2923.2	51.166	-0.250886
2925.6	51.0217	-0.251694
2928	50.8751	-0.252518
2930.4	50.7325	-0.253309
2932.8	50.5889	-0.253604
2935.2	50.4486	-0.254529
2937.6	50.3065	-0.255776
2940	50.1646	-0.256856
2942.4	50.0283	-0.257991
2944.8	49.8879	-0.258804
2947.2	49.7493	-0.259205
2949.6	49.6113	-0.259852
2952	49.4749	-0.260890
2954.4	49.3398	-0.261725
2956.8	49.2036	-0.262661
2959.2	49.0679	-0.263774
2961.6	48.9349	-0.264956
2964	48.8022	-0.265759
2966.4	48.67	-0.266230
2968.8	48.5398	-0.267005
2971.2	48.4062	-0.267663
2973.6	48.2773	-0.268198
2976	48.1474	-0.268776
2978.4	48.0179	-0.269750
2980.8	47.8941	-0.270697
2983.2	47.7637	-0.271612
2985.6	47.6378	-0.272612
2988	47.5124	-0.273291
2990.4	47.3874	-0.274003
2992.8	47.2621	-0.274731
2995.2	47.1386	-0.275330
2997.6	47.0156	-0.275688
3000	46.8951	-0.276336
3002.4	46.7721	-0.277181
3004.8	46.6532	-0.277604
3007.2	46.5353	-0.278230
3009.6	46.4137	-0.278952
3012	46.2949	-0.279642
3014.4	46.176	-0.280268
3016.8	46.0593	-0.281044
3019.2	45.941	-0.281851
3021.6	45.8256	-0.282418
3024	45.7109	-0.283644
3026.4	45.5961	-0.284633
3028.8	45.4814	-0.284901
3031.2	45.368	-0.285414
3033.6	45.2537	-0.286030
3036	45.1419	-0.286426
3038.4	45.0299	-0.287030
3040.8	44.9195	-0.287875
3043.2	44.8092	-0.288480
3045.6	44.6967	-0.288646
3048	44.5873	-0.289058
3050.4	44.4799	-0.289561
3052.8	44.3705	-0.289817
3055.2	44.2611	-0.290561
3057.6	44.1552	-0.291219
3060	44.0488	-0.291385
3062.4	43.9431	-0.291733
3064.8	43.8368	-0.291867
3067.2	43.732	-0.291867
3069.6	43.63	-0.292412
3072	43.5246	-0.292872
3074.4	43.4205	-0.293049
3076.8	43.3212	-0.293552
3079.2	43.2172	-0.294087
3081.6	43.115	-0.294654
3084	43.0138	-0.295135
3086.4	42.9122	-0.295601
3088.8	42.8112	-0.295772
3091.2	42.7138	-0.296307
3093.6	42.6135	-0.296885
3096	42.5179	-0.297040
3098.4	42.419	-0.297768
3100.8	42.3222	-0.298078
3103.2	42.2251	-0.298035
3105.6	42.1283	-0.298217
3108	42.0346	-0.298217
3110.4	41.9382	-0.298495
3112.8	41.8433	-0.298907
3115.2	41.7508	-0.298875
3117.6	41.6576	-0.298977
3120	41.5626	-0.299287
3122.4	41.4703	-0.299677
3124.8	41.3763	-0.299849
3127.2	41.2873	-0.299950
3129.6	41.1952	-0.300309
3132	41.1052	-0.300822
3134.4	41.0141	-0.301245
3136.8	40.9241	-0.301192
3139.2	40.8362	-0.301780
3141.6	40.7473	-0.302240
3144	40.6585	-0.302208
3146.4	40.5713	-0.302465
3148.8	40.4841	-0.302513
3151.2	40.398	-0.302802
3153.6	40.3105	-0.303016
3156	40.224	-0.303219
3158.4	40.1379	-0.303776
3160.8	40.0528	-0.303802
3163.2	39.9682	-0.303690
3165.6	39.8856	-0.303759
3168	39.8009	-0.303818
3170.4	39.7172	-0.304048
3172.8	39.6342	-0.304375
3175.2	39.5518	-0.304899
3177.6	39.469	-0.305482
3180	39.3886	-0.305418
3182.4	39.3049	-0.305397
3184.8	39.2276	-0.305680
3187.2	39.1453	-0.306049
3189.6	39.0644	-0.305953
3192	38.9866	-0.305712
3194.4	38.908	-0.306119
3196.8	38.8302	-0.306600
3199.2	38.7509	-0.306846
3201.6	38.6723	-0.307082
3204	38.5949	-0.307253
3206.4	38.5196	-0.307371
3208.8	38.441	-0.307419
3211.2	38.3667	-0.307242
3213.6	38.2901	-0.307248
3216	38.2162	-0.307606
3218.4	38.138	-0.308179
3220.8	38.0635	-0.308671
3223.2	37.9898	-0.308799
3225.6	37.9143	-0.308676
3228	37.8397	-0.308580
3230.4	37.7692	-0.308821
3232.8	37.6946	-0.309179
3235.2	37.6244	-0.309452
3237.6	37.551	-0.309923
3240	37.4776	-0.310147
3242.4	37.4064	-0.310597
3244.8	37.3346	-0.310993
3247.2	37.2633	-0.310993
3249.6	37.1938	-0.311479
3252	37.1243	-0.311683
3254.4	37.0532	-0.311774
3256.8	36.9847	-0.312255
3259.2	36.9148	-0.312394
3261.6	36.8466	-0.312442
3264	36.7785	-0.312672
3266.4	36.7095	-0.312699
3268.8	36.643	-0.312790
3271.2	36.5757	-0.312817
3273.6	36.51	-0.312935
3276	36.4431	-0.313272
3278.4	36.3747	-0.313545
3280.8	36.3108	-0.313726
3283.2	36.2437	-0.313930
3285.6	36.1802	-0.313866
3288	36.1179	-0.314272
3290.4	36.0501	-0.314700
3292.8	35.9859	-0.314695
3295.2	35.9219	-0.314486
3297.6	35.8588	-0.314245
3300	35.795	-0.314074
3302.4	35.7329	-0.314037
3304.8	35.6693	-0.314395
3307.2	35.6063	-0.314759
3309.6	35.5462	-0.314829
3312	35.4828	-0.315064
3314.4	35.4236	-0.315503
3316.8	35.3612	-0.315765
3319.2	35.3004	-0.315647
3321.6	35.238	-0.315984
3324	35.1774	-0.316482
3326.4	35.1183	-0.316631
3328.8	35.0596	-0.316915
3331.2	34.9989	-0.317129
3333.6	34.9401	-0.317134
3336	34.8811	-0.317386
3338.4	34.8227	-0.317391
3340.8	34.7656	-0.317685
3343.2	34.7056	-0.318220
3345.6	34.646	-0.318151
3348	34.5907	-0.318065
3350.4	34.5329	-0.318729
3352.8	34.477	-0.319242
3355.2	34.4202	-0.319429
3357.6	34.3637	-0.319964
3360	34.307	-0.320205
3362.4	34.2507	-0.320655
3364.8	34.1948	-0.320858
3367.2	34.1382	-0.321067
3369.6	34.0836	-0.321024
3372	34.0295	-0.321286
3374.4	33.9748	-0.321858
3376.8	33.9211	-0.322367
3379.2	33.8664	-0.322372
3381.6	33.8111	-0.322688
3384	33.7577	-0.322923
3386.4	33.7048	-0.323089
3388.8	33.6521	-0.323346
3391.2	33.5998	-0.323410
3393.6	33.5472	-0.323447
3396	33.4932	-0.323897
3398.4	33.4438	-0.324458
3400.8	33.3902	-0.324710
3403.2	33.3397	-0.324737
3405.6	33.2866	-0.324833
3408	33.2358	-0.325149
3410.4	33.1866	-0.325288
3412.8	33.1355	-0.325518
3415.2	33.0849	-0.325502
3417.6	33.0362	-0.325416
3420	32.986	-0.325710
3422.4	32.9366	-0.326138
3424.8	32.8879	-0.326481
3427.2	32.8376	-0.326261
3429.6	32.7915	-0.325935
3432	32.7427	-0.325978
3434.4	32.6942	-0.326106
3436.8	32.6462	-0.326235
3439.2	32.5978	-0.326283
3441.6	32.5509	-0.326026
3444	32.5035	-0.326117
3446.4	32.4554	-0.326368
3448.8	32.4094	-0.326299
3451.2	32.3629	-0.326095
3453.6	32.3156	-0.326277
3456	32.2678	-0.326663
3458.4	32.224	-0.326770
3460.8	32.1773	-0.326818
3463.2	32.1329	-0.326636
3465.6	32.0878	-0.326363
3468	32.0439	-0.326368
3470.4	31.9973	-0.326363
3472.8	31.9529	-0.326647
3475.2	31.9105	-0.326946
3477.6	31.8642	-0.326807
3480	31.8202	-0.326812
3482.4	31.7789	-0.326968
3484.8	31.7332	-0.326994
3487.2	31.6918	-0.327021
3489.6	31.6504	-0.327053
3492	31.6054	-0.327101
3494.4	31.5642	-0.327133
3496.8	31.52	-0.327593
3499.2	31.4786	-0.327631
3501.6	31.435	-0.327529
3504	31.3952	-0.327503
3506.4	31.3509	-0.327321
3508.8	31.309	-0.327385
3511.2	31.2699	-0.327337
3513.6	31.2285	-0.327273
3516	31.1887	-0.327246
3518.4	31.1461	-0.327064
3520.8	31.1097	-0.326909
3523.2	31.0682	-0.327123
3525.6	31.0273	-0.327444
3528	30.9889	-0.327615
3530.4	30.9483	-0.327433
3532.8	30.9079	-0.327497
3535.2	30.8698	-0.327968
3537.6	30.8311	-0.328102
3540	30.7928	-0.328305
3542.4	30.7543	-0.328557
3544.8	30.7145	-0.328653
3547.2	30.6758	-0.329059
3549.6	30.6391	-0.329198
3552	30.6011	-0.329316
3554.4	30.5646	-0.329771
3556.8	30.5279	-0.329830
3559.2	30.4885	-0.329937
3561.6	30.4527	-0.330215
3564	30.4163	-0.330386
3566.4	30.3797	-0.330680
3568.8	30.3418	-0.330910
3571.2	30.3057	-0.331039
3573.6	30.2722	-0.331360
3576	30.2352	-0.331665
3578.4	30.2	-0.332061
3580.8	30.1645	-0.332382
3583.2	30.1275	-0.332564
3585.6	30.0938	-0.332895
3588	30.0595	-0.333190
3590.4	30.0232	-0.333484
3592.1	30.0004	-0.333639