File: DSC Data Files/DSC_PU_Sample1.txt
Time(sec)	Temp(C)	DSC(mW)
0.000000	30.4567	-0.268830
0.800049	30.4473	-0.267626
1.600098	30.4377	-0.266551
2.400146	30.4261	-0.265497
3.199951	30.4132	-0.264395
4.000000	30.4024	-0.263308
4.800049	30.3908	-0.262297
5.600098	30.3805	-0.261399
6.400146	30.369	-0.260462
7.199951	30.3646	-0.259868
8.000000	30.367	-0.259756
8.800049	30.3782	-0.261254
9.600098	30.4007	-0.264705
10.4001	30.4365	-0.270943
11.2	30.483	-0.280610
12	30.5433	-0.294055
12.8	30.6178	-0.311667
13.6001	30.7013	-0.332521
14.4001	30.7929	-0.356333
15.2	30.8917	-0.381815
16	30.999	-0.408474
16.8	31.1111	-0.435160
17.6001	31.2299	-0.460914
18.4001	31.3506	-0.485620
19.2	31.4735	-0.508069
20	31.6018	-0.529003
20.8	31.7315	-0.547798
21.6001	31.8609	-0.564570
22.4001	31.9925	-0.579250
23.2	32.1229	-0.592041
24	32.2595	-0.603148
24.8	32.3905	-0.612719
25.6001	32.5269	-0.620616
26.4001	32.661	-0.627373
27.2	32.7968	-0.633242
28	32.9292	-0.637923
28.8	33.0692	-0.641678
29.6001	33.2058	-0.644739
30.4001	33.3395	-0.647274
31.2	33.4781	-0.649206
32	33.6131	-0.650377
32.8	33.7519	-0.651330
33.6001	33.8879	-0.651977
34.4001	34.0227	-0.652218
35.2	34.1608	-0.652132
36	34.299	-0.652031
36.8	34.4369	-0.651667
37.6001	34.5718	-0.651062
38.4001	34.7073	-0.650324
39.2	34.8448	-0.649532
40	34.9831	-0.648837
40.8	35.1193	-0.647708
41.6001	35.2561	-0.646600
42.4001	35.3916	-0.645477
43.2	35.5279	-0.644359
44	35.6648	-0.643251
44.8	35.8024	-0.641946
45.6001	35.9403	-0.640785
46.4001	36.0749	-0.639555
47.2	36.2143	-0.638361
48	36.3489	-0.637019
48.8	36.486	-0.635692
49.6001	36.6235	-0.634472
50.4001	36.7594	-0.633156
51.2	36.8999	-0.631904
52	37.0345	-0.630695
52.8	37.171	-0.629566
53.6001	37.3092	-0.628303
54.4001	37.4447	-0.627030
55.2	37.5829	-0.625559
56	37.7199	-0.624318
56.8	37.8573	-0.622697
57.6001	37.991	-0.621242
58.4001	38.1286	-0.619802
59.2	38.2663	-0.618358
60	38.4034	-0.617138
60.8	38.5396	-0.615485
61.6001	38.675	-0.614169
62.4001	38.8118	-0.612773
63.2	38.9505	-0.611398
64	39.085	-0.609873
64.8	39.2217	-0.608396
65.6001	39.3596	-0.607166
66.4001	39.4964	-0.605812
67.2	39.6336	-0.604469
68	39.7704	-0.603095
68.8	39.9084	-0.601864
69.6001	40.0413	-0.600666
70.4001	40.1794	-0.599382
71.2	40.3157	-0.598119
72	40.4534	-0.596605
72.8	40.5903	-0.595230
73.6001	40.7258	-0.593780
74.4001	40.8619	-0.592272
75.2	40.9991	-0.590752
76	41.1377	-0.589179
76.8	41.2717	-0.587804
77.6001	41.4082	-0.586328
78.4001	41.5463	-0.584969
79.2	41.6825	-0.583690
80	41.8189	-0.582182
80.8	41.9537	-0.580956
81.6001	42.0912	-0.579635
82.4001	42.2281	-0.578217
83.2	42.3656	-0.576762
84	42.5024	-0.575221
84.8	42.6362	-0.573878
85.6001	42.7728	-0.572402
86.4001	42.9092	-0.570861
87.2	43.047	-0.569465
88	43.1841	-0.568031
88.8	43.3188	-0.566608
89.6001	43.454	-0.565211
90.4001	43.589	-0.563724
91.2	43.7287	-0.562558
92	43.8642	-0.561183
92.8	43.9995	-0.559658
93.6001	44.1379	-0.558406
94.4001	44.2737	-0.556973
95.2	44.4098	-0.555560
96	44.5462	-0.554228
96.8	44.6822	-0.552976
97.6001	44.8208	-0.551853
98.4001	44.9591	-0.550622
99.2	45.0938	-0.549386
100	45.2284	-0.548402
100.8	45.3642	-0.547155
101.6	45.4994	-0.545855
102.4	45.6373	-0.544513
103.2	45.7726	-0.543400
104	45.9085	-0.542143
104.8	46.0472	-0.540864
105.6	46.1807	-0.539676
106.4	46.3175	-0.538542
107.2	46.4552	-0.537322
108	46.5892	-0.535894
108.8	46.7291	-0.534706
109.6	46.8631	-0.533561
110.4	46.9988	-0.532245
111.2	47.1381	-0.530811
112	47.273	-0.529452
112.8	47.4097	-0.528040
113.6	47.5454	-0.526660
114.4	47.6832	-0.525055
115.2	47.8169	-0.523664
116	47.9522	-0.522374
116.8	48.0934	-0.521026
117.6	48.2272	-0.519700
118.4	48.3649	-0.518276
119.2	48.501	-0.516752
120	48.6353	-0.515141
120.8	48.7734	-0.513574
121.6	48.9107	-0.512124
122.4	49.0482	-0.510696
123.2	49.1839	-0.509139
124	49.3193	-0.507887
124.8	49.4544	-0.506496
125.6	49.5918	-0.505067
126.4	49.728	-0.503382
127.2	49.8649	-0.501922
128	50	-0.500482
128.8	50.1372	-0.498926
129.6	50.2737	-0.497299
130.4	50.4101	-0.495812
131.2	50.5429	-0.494587
132	50.679	-0.493153
132.8	50.8164	-0.491714
133.6	50.9535	-0.490569
134.4	51.0898	-0.489258
135.2	51.2232	-0.488065
136	51.3616	-0.486621
136.8	51.4979	-0.485203
137.6	51.635	-0.483924
138.4	51.7711	-0.482421
139.2	51.9055	-0.480928
140	52.0431	-0.479602
140.8	52.1811	-0.478162
141.6	52.3169	-0.476793
142.4	52.4526	-0.475455
143.2	52.5873	-0.474118
144	52.722	-0.472770
144.8	52.8609	-0.471154
145.6	52.996	-0.469635
146.4	53.1304	-0.467992
147.2	53.2677	-0.466414
148	53.4053	-0.464975
148.8	53.5419	-0.463343
149.6	53.6761	-0.461893
150.4	53.8123	-0.460486
151.2	53.9479	-0.459047
152	54.0887	-0.457587
152.8	54.2225	-0.456121
153.6	54.3572	-0.454639
154.4	54.4931	-0.453221
155.2	54.6302	-0.451857
156	54.7655	-0.450514
156.8	54.9016	-0.449112
157.6	55.0373	-0.447791
158.4	55.1738	-0.446373
159.2	55.3117	-0.445100
160	55.4478	-0.443757
160.8	55.5828	-0.442227
161.6	55.7216	-0.440595
162.4	55.8541	-0.438883
163.2	55.9939	-0.437289
164	56.1308	-0.435475
164.8	56.2683	-0.433608
165.6	56.402	-0.432153
166.4	56.5376	-0.430644
167.2	56.6729	-0.429323
168	56.8097	-0.427745
168.8	56.9458	-0.426289
169.6	57.0817	-0.425107
170.4	57.2167	-0.423561
171.2	57.3539	-0.422025
172	57.4892	-0.420560
172.8	57.6259	-0.419372
173.6	57.7624	-0.417986
174.4	57.8988	-0.416574
175.2	58.0327	-0.415343
176	58.1677	-0.414156
176.8	58.3072	-0.412925
177.6	58.4403	-0.411379
178.4	58.5762	-0.410100
179.2	58.7135	-0.408758
180	58.8496	-0.407345
180.8	58.9873	-0.406034
181.6	59.1204	-0.404622
182.4	59.2554	-0.403670
183.2	59.3926	-0.402391
184	59.5292	-0.401113
184.8	59.6645	-0.399887
185.6	59.8007	-0.398566
186.4	59.9357	-0.397154
187.2	60.0706	-0.395607
188	60.2072	-0.394136
188.8	60.3411	-0.392895
189.6	60.4764	-0.391739
190.4	60.612	-0.390509
191.2	60.7467	-0.389375
192	60.8832	-0.388257
192.8	61.0172	-0.387192
193.6	61.1517	-0.385962
194.4	61.2887	-0.384908
195.2	61.4235	-0.383741
196	61.5585	-0.382741
196.8	61.6958	-0.381928
197.6	61.8288	-0.381029
198.4	61.9662	-0.380221
199.2	62.1029	-0.379210
200	62.2387	-0.378370
200.8	62.3749	-0.377375
201.6	62.5091	-0.376310
202.4	62.6446	-0.375278
203.2	62.7797	-0.374117
204	62.9157	-0.373100
204.8	63.0497	-0.372030
205.6	63.1861	-0.371030
206.4	63.3206	-0.369976
207.2	63.4581	-0.368890
208	63.5932	-0.367921
208.8	63.7282	-0.367033
209.6	63.8629	-0.365947
210.4	63.9991	-0.364744
211.2	64.1362	-0.363823
212	64.2728	-0.362935
212.8	64.4045	-0.361924
213.6	64.5421	-0.360822
214.4	64.6783	-0.359741
215.2	64.8158	-0.358768
216	64.9482	-0.357687
216.8	65.0835	-0.356366
217.6	65.221	-0.355269
218.4	65.3567	-0.354188
219.2	65.4937	-0.353300
220	65.629	-0.352241
220.8	65.7639	-0.351331
221.6	65.8992	-0.350539
222.4	66.0356	-0.349576
223.2	66.1732	-0.348651
224	66.3089	-0.347629
224.8	66.4451	-0.346714
225.6	66.5796	-0.345971
226.4	66.7146	-0.345024
227.2	66.8502	-0.344136
228	66.9857	-0.343231
228.8	67.1214	-0.342477
229.6	67.2575	-0.341530
230.4	67.3933	-0.340380
231.2	67.5311	-0.339358
232	67.6635	-0.338443
232.8	67.8003	-0.337464
233.6	67.9359	-0.336630
234.4	68.071	-0.335736
235.2	68.2055	-0.335062
236	68.3411	-0.334292
236.8	68.4761	-0.333377
237.6	68.6107	-0.332510
238.4	68.7474	-0.331809
239.2	68.8842	-0.330894
240	69.0158	-0.330140
240.8	69.1543	-0.329493
241.6	69.2906	-0.328883
242.4	69.4245	-0.328209
243.2	69.5595	-0.327551
244	69.6958	-0.327075
244.8	69.8317	-0.326588
245.6	69.9675	-0.325946
246.4	70.1034	-0.325480
247.2	70.2383	-0.324886
248	70.373	-0.324309
248.8	70.508	-0.323608
249.6	70.6409	-0.322966
250.4	70.7772	-0.322404
251.2	70.9119	-0.321794
252	71.0462	-0.321398
252.8	71.1797	-0.320944
253.6	71.3167	-0.320473
254.4	71.4511	-0.320098
255.2	71.5857	-0.319745
256	71.7209	-0.319317
256.8	71.8564	-0.318857
257.6	71.9917	-0.318424
258.4	72.1268	-0.318065
259.2	72.2626	-0.317669
260	72.3973	-0.317364
260.8	72.5321	-0.317070
261.6	72.6688	-0.316787
262.4	72.8038	-0.316535
263.2	72.9397	-0.316241
264	73.0731	-0.315957
264.8	73.2087	-0.315428
265.6	73.3447	-0.315075
266.4	73.4782	-0.314668
267.2	73.614	-0.314261
268	73.7483	-0.314042
268.8	73.885	-0.313726
269.6	74.0194	-0.313689
270.4	74.1552	-0.313486
271.2	74.2889	-0.313111
272	74.4242	-0.313079
272.8	74.5607	-0.313020
273.6	74.6948	-0.312929
274.4	74.8298	-0.312758
275.2	74.9641	-0.312640
276	75.0992	-0.312640
276.8	75.235	-0.312560
277.6	75.37	-0.312389
278.4	75.5041	-0.311982
279.2	75.6388	-0.311891
280	75.7752	-0.311661
280.8	75.9085	-0.311490
281.6	76.0462	-0.311356
282.4	76.1802	-0.311148
283.2	76.3136	-0.311180
284	76.4485	-0.311019
284.8	76.5856	-0.310854
285.6	76.7205	-0.310918
286.4	76.8557	-0.310880
287.2	76.991	-0.310891
288	77.1258	-0.311025
288.8	77.2618	-0.311094
289.6	77.3967	-0.311158
290.4	77.5305	-0.311169
291.2	77.6657	-0.311142
292	77.8006	-0.311094
292.8	77.9369	-0.311003
293.6	78.0725	-0.311003
294.4	78.2061	-0.311137
295.2	78.3413	-0.311067
296	78.4751	-0.311089
296.8	78.6125	-0.311051
297.6	78.7458	-0.311051
298.4	78.881	-0.311035
299.2	79.0154	-0.311003
300	79.1501	-0.311137
300.8	79.2844	-0.311314
301.6	79.4197	-0.311538
302.4	79.5555	-0.311956
303.2	79.6895	-0.312196
304	79.8252	-0.312475
304.8	79.9588	-0.312699
305.6	80.0933	-0.312892
306.4	80.2311	-0.313052
307.2	80.3668	-0.313282
308	80.503	-0.313566
308.8	80.6357	-0.313839
309.6	80.7735	-0.314122
310.4	80.9079	-0.314347
311.2	81.0448	-0.314689
312	81.1782	-0.314839
312.8	81.3152	-0.314903
313.6	81.4486	-0.314941
314.4	81.5835	-0.314887
315.2	81.7203	-0.315101
316	81.8549	-0.315283
316.8	81.9897	-0.315487
317.6	82.1226	-0.315685
318.4	82.26	-0.316080
319.2	82.3927	-0.316567
320	82.5296	-0.317001
320.8	82.6649	-0.317231
321.6	82.7992	-0.317685
322.4	82.9348	-0.318022
323.2	83.0704	-0.318445
324	83.2043	-0.318664
324.8	83.3375	-0.318969
325.6	83.4732	-0.319536
326.4	83.6081	-0.320130
327.2	83.7439	-0.320473
328	83.8781	-0.320895
328.8	84.0126	-0.321361
329.6	84.1477	-0.321826
330.4	84.2827	-0.322190
331.2	84.416	-0.322506
332	84.5517	-0.322955
332.8	84.6867	-0.323485
333.6	84.8202	-0.323907
334.4	84.9546	-0.324127
335.2	85.0912	-0.324592
336	85.2221	-0.325084
336.8	85.3581	-0.325539
337.6	85.4934	-0.325940
338.4	85.625	-0.326395
339.2	85.761	-0.327075
340	85.8951	-0.327588
340.8	86.0305	-0.328193
341.6	86.1637	-0.328840
342.4	86.2982	-0.329584
343.2	86.4321	-0.330392
344	86.5673	-0.331130
344.8	86.7018	-0.332087
345.6	86.836	-0.332794
346.4	86.971	-0.333596
347.2	87.1068	-0.334415
348	87.2399	-0.335041
348.8	87.375	-0.335672
349.6	87.509	-0.336287
350.4	87.644	-0.336881
351.2	87.7786	-0.337539
352	87.9131	-0.338090
352.8	88.0482	-0.338727
353.6	88.1813	-0.339422
354.4	88.3169	-0.339941
355.2	88.4526	-0.340514
356	88.5837	-0.341129
356.8	88.7183	-0.341915
357.6	88.8552	-0.342611
358.4	88.9893	-0.343376
359.2	89.1247	-0.344221
360	89.2581	-0.344954
360.8	89.3946	-0.345848
361.6	89.5266	-0.346645
362.4	89.6633	-0.347351
363.2	89.7993	-0.347950
364	89.9327	-0.348769
364.8	90.0667	-0.349427
365.6	90.2034	-0.350047
366.4	90.3394	-0.350769
367.2	90.4742	-0.351492
368	90.6073	-0.352246
368.8	90.7442	-0.352947
369.6	90.8811	-0.353444
370.4	91.0165	-0.354033
371.2	91.1525	-0.354595
372	91.2869	-0.355103
372.8	91.4203	-0.355552
373.6	91.5546	-0.356061
374.4	91.689	-0.356713
375.2	91.8228	-0.357361
376	91.9573	-0.358029
376.8	92.0927	-0.358629
377.6	92.2268	-0.359308
378.4	92.3597	-0.359822
379.2	92.4953	-0.360378
380	92.6285	-0.360897
380.8	92.7563	-0.361378
381.6	92.896	-0.362127
382.4	93.0312	-0.362673
383.2	93.1652	-0.363497
384	93.2971	-0.364235
384.8	93.4339	-0.365075
385.6	93.5677	-0.365856
386.4	93.7037	-0.366686
387.2	93.8366	-0.367547
388	93.9711	-0.368344
388.8	94.1039	-0.369339
389.6	94.2389	-0.370126
390.4	94.374	-0.370955
391.2	94.5034	-0.371693
392	94.6399	-0.372292
392.8	94.7743	-0.372924
393.6	94.9081	-0.373608
394.4	95.0451	-0.374390
395.2	95.1736	-0.375155
396	95.3115	-0.375898
396.8	95.4469	-0.376856
397.6	95.5804	-0.377733
398.4	95.7138	-0.378493
399.2	95.8486	-0.379322
400	95.9817	-0.380221
400.8	96.1186	-0.381077
401.6	96.2497	-0.381965
402.4	96.3814	-0.382607
403.2	96.5191	-0.383329
404	96.6541	-0.384121
404.8	96.7874	-0.384908
405.6	96.9205	-0.385635
406.4	97.055	-0.386593
407.2	97.191	-0.387529
408	97.3249	-0.388567
408.8	97.4583	-0.389648
409.6	97.5931	-0.390643
410.4	97.7264	-0.391622
411.2	97.86	-0.392280
412	97.9933	-0.393136
412.8	98.1285	-0.393992
413.6	98.2625	-0.394789
414.4	98.3974	-0.395474
415.2	98.5307	-0.396121
416	98.6646	-0.396795
416.8	98.7993	-0.397683
417.6	98.9328	-0.398545
418.4	99.066	-0.399374
419.2	99.2021	-0.400240
420	99.3347	-0.401054
420.8	99.4646	-0.402033
421.6	99.6028	-0.402825
422.4	99.7366	-0.403643
423.2	99.8709	-0.404585
424	100.005	-0.405403
424.8	100.141	-0.406195
425.6	100.271	-0.406998
426.4	100.403	-0.407757
427.2	100.538	-0.408549
428	100.672	-0.409261
428.8	100.806	-0.409993
429.6	100.937	-0.410796
430.4	101.069	-0.411748
431.2	101.206	-0.412658
432	101.341	-0.413428
432.8	101.474	-0.414471
433.6	101.606	-0.415504
434.4	101.742	-0.416526
435.2	101.875	-0.417408
436	102.011	-0.418409
436.8	102.145	-0.419570
437.6	102.277	-0.420399
438.4	102.414	-0.421287
439.2	102.548	-0.422368
440	102.683	-0.423502
440.8	102.816	-0.424529
441.6	102.951	-0.425300
442.4	103.083	-0.426081
443.2	103.219	-0.427049
444	103.353	-0.427680
444.8	103.487	-0.428499
445.6	103.62	-0.429168
446.4	103.753	-0.430206
447.2	103.887	-0.431217
448	104.022	-0.432105
448.8	104.156	-0.432891
449.6	104.288	-0.433549
450.4	104.423	-0.434330
451.2	104.558	-0.435277
452	104.692	-0.435786
452.8	104.824	-0.436395
453.6	104.959	-0.437123
454.4	105.092	-0.438033
455.2	105.23	-0.438685
456	105.366	-0.439322
456.8	105.499	-0.440280
457.6	105.635	-0.441029
458.4	105.767	-0.441965
459.2	105.902	-0.442575
460	106.036	-0.443350
460.8	106.169	-0.444019
461.6	106.305	-0.444656
462.4	106.438	-0.445282
463.2	106.574	-0.445667
464	106.708	-0.446293
464.8	106.839	-0.446673
465.6	106.973	-0.447127
466.4	107.103	-0.447545
467.2	107.241	-0.447999
468	107.374	-0.448588
468.8	107.507	-0.449171
469.6	107.639	-0.449990
470.4	107.772	-0.450637
471.2	107.909	-0.451541
472	108.039	-0.452156
472.8	108.168	-0.453034
473.6	108.308	-0.453884
474.4	108.441	-0.454831
475.2	108.573	-0.455826
476	108.707	-0.456811
476.8	108.833	-0.457651
477.6	108.974	-0.458710
478.4	109.108	-0.459646
479.2	109.241	-0.460460
480	109.374	-0.461246
480.8	109.501	-0.461915
481.6	109.642	-0.462685
482.4	109.775	-0.463488
483.2	109.908	-0.463996
484	110.04	-0.464809
484.8	110.173	-0.465601
485.6	110.309	-0.466537
486.4	110.441	-0.467259
487.2	110.576	-0.468099
488	110.706	-0.468789
488.8	110.841	-0.469463
489.6	110.975	-0.470052
490.4	111.108	-0.470624
491.2	111.24	-0.471245
492	111.375	-0.471866
492.8	111.509	-0.472684
493.6	111.644	-0.473663
494.4	111.775	-0.474514
495.2	111.908	-0.475562
496	112.042	-0.476451
496.8	112.175	-0.477371
497.6	112.311	-0.478467
498.4	112.443	-0.479275
499.2	112.571	-0.480056
500	112.708	-0.480853
500.8	112.836	-0.481742
501.6	112.977	-0.482678
502.4	113.103	-0.483411
503.2	113.24	-0.484384
504	113.377	-0.485144
504.8	113.504	-0.485765
505.6	113.642	-0.486412
506.4	113.774	-0.486840
507.2	113.907	-0.487359
508	114.041	-0.487958
508.8	114.175	-0.488434
509.6	114.308	-0.489103
510.4	114.441	-0.489761
511.2	114.574	-0.490419
512	114.708	-0.490970
512.8	114.842	-0.491297
513.6	114.975	-0.491767
514.4	115.106	-0.492126
515.2	115.242	-0.492265
516	115.374	-0.492452
516.8	115.508	-0.492821
517.6	115.639	-0.494833
518.4	115.772	-0.499348
519.2	115.906	-0.503516
520	116.039	-0.506533
520.8	116.173	-0.508636
521.6	116.307	-0.509781
522.4	116.437	-0.509444
523.2	116.572	-0.505019
524	116.709	-0.500167
524.8	116.84	-0.496031
525.6	116.975	-0.492490
526.4	117.103	-0.489643
527.2	117.238	-0.487166
528	117.372	-0.485240
528.8	117.505	-0.483721
529.6	117.64	-0.482491
530.4	117.772	-0.481495
531.2	117.904	-0.480843
532	118.041	-0.480319
532.8	118.171	-0.480190
533.6	118.307	-0.480105
534.4	118.438	-0.479976
535.2	118.571	-0.480088
536	118.705	-0.480158
536.8	118.839	-0.480377
537.6	118.972	-0.480650
538.4	119.105	-0.480848
539.2	119.239	-0.481298
540	119.372	-0.481645
540.8	119.505	-0.482127
541.6	119.637	-0.482464
542.4	119.771	-0.482833
543.2	119.903	-0.483202
544	120.037	-0.483272
544.8	120.171	-0.483454
545.6	120.303	-0.483678
546.4	120.439	-0.483849
547.2	120.576	-0.484154
548	120.71	-0.484497
548.8	120.839	-0.484855
549.6	120.972	-0.485273
550.4	121.108	-0.485438
551.2	121.236	-0.485668
552	121.373	-0.485973
552.8	121.504	-0.486262
553.6	121.638	-0.486562
554.4	121.772	-0.486738
555.2	121.904	-0.487054
556	122.036	-0.487332
556.8	122.164	-0.487760
557.6	122.301	-0.488044
558.4	122.436	-0.488450
559.2	122.567	-0.488697
560	122.7	-0.489312
560.8	122.831	-0.490162
561.6	122.963	-0.490687
562.4	123.096	-0.491184
563.2	123.228	-0.491607
564	123.364	-0.492121
564.8	123.495	-0.492575
565.6	123.631	-0.492763
566.4	123.763	-0.492950
567.2	123.898	-0.493383
568	124.032	-0.493945
568.8	124.164	-0.494084
569.6	124.297	-0.494084
570.4	124.432	-0.494330
571.2	124.562	-0.494737
572	124.695	-0.494902
572.8	124.821	-0.495111
573.6	124.958	-0.495090
574.4	125.091	-0.495486
575.2	125.226	-0.495908
576	125.359	-0.496144
576.8	125.492	-0.496363
577.6	125.625	-0.496636
578.4	125.76	-0.497069
579.2	125.89	-0.497396
580	126.021	-0.497690
580.8	126.152	-0.497898
581.6	126.282	-0.498177
582.4	126.417	-0.498166
583.2	126.55	-0.498273
584	126.681	-0.498663
584.8	126.81	-0.498835
585.6	126.944	-0.499220
586.4	127.076	-0.499594
587.2	127.206	-0.500108
588	127.338	-0.500680
588.8	127.47	-0.501012
589.6	127.597	-0.501269
590.4	127.732	-0.501654
591.2	127.866	-0.501761
592	127.997	-0.501911
592.8	128.13	-0.501986
593.6	128.261	-0.501868
594.4	128.395	-0.501686
595.2	128.527	-0.501451
596	128.657	-0.501312
596.8	128.789	-0.501258
597.6	128.918	-0.501231
598.4	129.051	-0.501419
599.2	129.182	-0.501772
600	129.311	-0.502237
600.8	129.445	-0.502639
601.6	129.578	-0.503013
602.4	129.709	-0.503355
603.2	129.84	-0.503623
604	129.973	-0.503976
604.8	130.105	-0.504479
605.6	130.235	-0.504816
606.4	130.363	-0.505437
607.2	130.494	-0.505982
608	130.626	-0.506619
608.8	130.76	-0.507288
609.6	130.89	-0.507972
610.4	131.022	-0.508609
611.2	131.154	-0.509272
612	131.287	-0.510107
612.8	131.419	-0.510979
613.6	131.552	-0.511840
614.4	131.684	-0.512686
615.2	131.816	-0.513499
616	131.951	-0.514339
616.8	132.083	-0.514815
617.6	132.215	-0.515371
618.4	132.347	-0.515634
619.2	132.476	-0.515955
620	132.61	-0.516008
620.8	132.743	-0.516249
621.6	132.874	-0.516383
622.4	133.005	-0.516329
623.2	133.137	-0.516334
624	133.271	-0.516468
624.8	133.402	-0.516559
625.6	133.535	-0.516554
626.4	133.667	-0.516688
627.2	133.795	-0.516703
628	133.93	-0.516827
628.8	134.061	-0.516950
629.6	134.195	-0.517249
630.4	134.326	-0.517410
631.2	134.456	-0.517768
632	134.59	-0.518078
632.8	134.722	-0.518448
633.6	134.854	-0.518838
634.4	134.986	-0.519165
635.2	135.118	-0.519630
636	135.251	-0.519844
636.8	135.385	-0.520309
637.6	135.517	-0.520641
638.4	135.647	-0.520802
639.2	135.78	-0.520775
640	135.911	-0.520689
640.8	136.045	-0.520561
641.6	136.177	-0.520325
642.4	136.308	-0.520165
643.2	136.44	-0.520133
644	136.572	-0.520234
644.8	136.706	-0.520406
645.6	136.836	-0.520598
646.4	136.969	-0.520802
647.2	137.101	-0.520807
648	137.233	-0.521074
648.8	137.365	-0.521069
649.6	137.497	-0.521042
650.4	137.627	-0.521176
651.2	137.761	-0.521262
652	137.893	-0.521492
652.8	138.024	-0.521465
653.6	138.156	-0.521588
654.4	138.286	-0.521722
655.2	138.418	-0.521706
656	138.549	-0.521626
656.8	138.679	-0.521716
657.6	138.812	-0.521754
658.4	138.943	-0.521786
659.2	139.074	-0.521968
660	139.206	-0.522080
660.8	139.337	-0.522449
661.6	139.471	-0.522540
662.4	139.6	-0.522733
663.2	139.731	-0.522926
664	139.865	-0.523182
664.8	139.994	-0.523386
665.6	140.125	-0.523327
666.4	140.261	-0.523332
667.2	140.391	-0.523509
668	140.524	-0.523530
668.8	140.657	-0.523316
669.6	140.788	-0.523150
670.4	140.919	-0.523124
671.2	141.051	-0.522968
672	141.183	-0.522717
672.8	141.314	-0.522465
673.6	141.444	-0.522251
674.4	141.576	-0.522364
675.2	141.708	-0.522225
676	141.841	-0.522064
676.8	141.971	-0.522102
677.6	142.1	-0.522193
678.4	142.234	-0.522332
679.2	142.368	-0.522332
680	142.498	-0.522316
680.8	142.628	-0.522465
681.6	142.762	-0.522412
682.4	142.892	-0.522621
683.2	143.023	-0.522610
684	143.156	-0.522562
684.8	143.285	-0.522588
685.6	143.419	-0.522578
686.4	143.548	-0.522867
687.2	143.68	-0.522915
688	143.811	-0.523134
688.8	143.941	-0.523332
689.6	144.073	-0.523803
690.4	144.203	-0.524022
691.2	144.337	-0.524140
692	144.467	-0.524316
692.8	144.597	-0.524381
693.6	144.73	-0.524477
694.4	144.859	-0.524402
695.2	144.995	-0.524199
696	145.123	-0.524124
696.8	145.257	-0.524274
697.6	145.388	-0.524177
698.4	145.52	-0.524022
699.2	145.652	-0.523910
700	145.784	-0.523765
700.8	145.913	-0.523739
701.6	146.045	-0.523621
702.4	146.176	-0.523354
703.2	146.306	-0.523139
704	146.439	-0.522947
704.8	146.57	-0.522824
705.6	146.7	-0.522658
706.4	146.832	-0.522583
707.2	146.964	-0.522530
708	147.093	-0.522396
708.8	147.223	-0.522096
709.6	147.352	-0.521973
710.4	147.487	-0.521829
711.2	147.616	-0.521636
712	147.745	-0.521433
712.8	147.878	-0.521331
713.6	148.007	-0.521401
714.4	148.14	-0.521374
715.2	148.273	-0.521535
716	148.4	-0.521663
716.8	148.533	-0.521716
717.6	148.663	-0.521936
718.4	148.795	-0.522102
719.2	148.925	-0.522096
720	149.056	-0.522118
720.8	149.186	-0.522267
721.6	149.319	-0.522278
722.4	149.447	-0.522353
723.2	149.579	-0.522080
724	149.711	-0.522251
724.8	149.841	-0.522369
725.6	149.972	-0.522235
726.4	150.104	-0.522080
727.2	150.235	-0.521861
728	150.364	-0.521946
728.8	150.494	-0.521781
729.6	150.626	-0.521695
730.4	150.761	-0.521754
731.2	150.891	-0.521823
732	151.021	-0.521834
732.8	151.15	-0.521845
733.6	151.284	-0.521930
734.4	151.414	-0.521963
735.2	151.543	-0.521925
736	151.676	-0.521984
736.8	151.808	-0.521936
737.6	151.939	-0.522005
738.4	152.07	-0.522187
739.2	152.198	-0.522326
740	152.33	-0.522423
740.8	152.459	-0.522396
741.6	152.593	-0.522733
742.4	152.725	-0.523134
743.2	152.855	-0.523038
744	152.988	-0.522968
744.8	153.12	-0.522701
745.6	153.25	-0.522594
746.4	153.378	-0.522535
747.2	153.511	-0.522235
748	153.644	-0.522219
748.8	153.774	-0.522316
749.6	153.905	-0.522337
750.4	154.037	-0.522385
751.2	154.167	-0.522262
752	154.3	-0.522219
752.8	154.428	-0.522048
753.6	154.562	-0.522037
754.4	154.691	-0.522000
755.2	154.821	-0.521898
756	154.956	-0.521807
756.8	155.085	-0.521733
757.6	155.217	-0.521695
758.4	155.347	-0.521481
759.2	155.479	-0.521428
760	155.61	-0.521465
760.8	155.743	-0.521299
761.6	155.874	-0.521246
762.4	156.003	-0.521321
763.2	156.135	-0.521176
764	156.266	-0.521181
764.8	156.398	-0.521112
765.6	156.531	-0.521299
766.4	156.66	-0.521599
767.2	156.794	-0.521599
768	156.924	-0.521845
768.8	157.058	-0.521823
769.6	157.187	-0.521700
770.4	157.319	-0.521631
771.2	157.451	-0.521556
772	157.582	-0.521326
772.8	157.715	-0.521053
773.6	157.845	-0.520727
774.4	157.977	-0.520630
775.2	158.11	-0.520449
776	158.241	-0.520256
776.8	158.372	-0.520133
777.6	158.504	-0.520111
778.4	158.634	-0.520299
779.2	158.766	-0.520047
780	158.897	-0.520079
780.8	159.029	-0.520004
781.6	159.162	-0.520101
782.4	159.291	-0.520111
783.2	159.424	-0.520037
784	159.554	-0.520154
784.8	159.689	-0.520240
785.6	159.822	-0.520309
786.4	159.949	-0.520331
787.2	160.083	-0.520486
788	160.215	-0.520438
788.8	160.349	-0.520588
789.6	160.478	-0.520555
790.4	160.611	-0.520422
791.2	160.742	-0.520256
792	160.873	-0.520149
792.8	161.005	-0.519844
793.6	161.138	-0.519614
794.4	161.27	-0.519507
795.2	161.402	-0.519496
796	161.534	-0.519512
796.8	161.665	-0.519443
797.6	161.798	-0.519721
798.4	161.933	-0.519844
799.2	162.064	-0.519930
800	162.194	-0.520053
800.8	162.328	-0.520111
801.6	162.461	-0.520390
802.4	162.595	-0.520347
803.2	162.726	-0.520336
804	162.859	-0.520422
804.8	162.993	-0.520507
805.6	163.124	-0.520555
806.4	163.258	-0.520368
807.2	163.389	-0.520379
808	163.523	-0.520358
808.8	163.654	-0.520336
809.6	163.784	-0.520267
810.4	163.918	-0.520277
811.2	164.052	-0.520400
812	164.186	-0.520695
812.8	164.317	-0.520909
813.6	164.451	-0.520839
814.4	164.583	-0.520823
815.2	164.717	-0.520775
816	164.85	-0.520561
816.8	164.98	-0.520358
817.6	165.116	-0.520058
818.4	165.25	-0.520095
819.2	165.384	-0.520149
820	165.515	-0.519967
820.8	165.645	-0.519753
821.6	165.781	-0.519673
822.4	165.914	-0.519309
823.2	166.048	-0.518720
824	166.178	-0.518180
824.8	166.312	-0.517592
825.6	166.445	-0.517292
826.4	166.58	-0.516896
827.2	166.713	-0.516778
828	166.847	-0.516671
828.8	166.977	-0.516645
829.6	167.112	-0.516730
830.4	167.247	-0.516725
831.2	167.379	-0.516709
832	167.514	-0.516559
832.8	167.648	-0.516473
833.6	167.779	-0.516340
834.4	167.912	-0.516270
835.2	168.045	-0.516019
836	168.176	-0.515596
836.8	168.311	-0.515516
837.6	168.444	-0.515409
838.4	168.578	-0.515238
839.2	168.709	-0.514938
840	168.843	-0.514767
840.8	168.975	-0.514612
841.6	169.108	-0.514467
842.4	169.245	-0.514339
843.2	169.376	-0.514146
844	169.508	-0.514109
844.8	169.642	-0.513975
845.6	169.776	-0.513991
846.4	169.909	-0.513868
847.2	170.043	-0.513740
848	170.176	-0.513622
848.8	170.311	-0.513381
849.6	170.444	-0.513119
850.4	170.579	-0.512723
851.2	170.712	-0.512327
852	170.846	-0.511910
852.8	170.98	-0.511471
853.6	171.113	-0.511391
854.4	171.247	-0.511348
855.2	171.381	-0.511145
856	171.514	-0.510893
856.8	171.647	-0.510423
857.6	171.783	-0.510267
858.4	171.917	-0.509738
859.2	172.048	-0.509208
860	172.183	-0.508957
860.8	172.317	-0.509042
861.6	172.451	-0.508887
862.4	172.586	-0.508711
863.2	172.718	-0.508577
864	172.853	-0.508449
864.8	172.986	-0.507999
865.6	173.121	-0.507833
866.4	173.255	-0.507641
867.2	173.389	-0.507512
868	173.522	-0.507427
868.8	173.656	-0.507223
869.6	173.791	-0.507421
870.4	173.925	-0.507132
871.2	174.057	-0.507047
872	174.19	-0.506967
872.8	174.325	-0.506576
873.6	174.46	-0.506132
874.4	174.592	-0.505624
875.2	174.727	-0.505324
876	174.86	-0.504982
876.8	174.994	-0.504559
877.6	175.128	-0.504270
878.4	175.261	-0.504329
879.2	175.395	-0.504308
880	175.529	-0.504490
880.8	175.663	-0.504618
881.6	175.797	-0.504837
882.4	175.931	-0.505078
883.2	176.064	-0.505206
884	176.199	-0.505351
884.8	176.334	-0.505538
885.6	176.468	-0.505624
886.4	176.6	-0.505469
887.2	176.735	-0.505383
888	176.87	-0.505265
888.8	177.004	-0.505372
889.6	177.138	-0.505206
890.4	177.27	-0.504987
891.2	177.405	-0.505025
892	177.537	-0.504880
892.8	177.672	-0.504661
893.6	177.807	-0.504361
894.4	177.939	-0.503997
895.2	178.075	-0.503789
896	178.208	-0.503623
896.8	178.343	-0.503441
897.6	178.478	-0.503286
898.4	178.61	-0.503345
899.2	178.746	-0.503141
900	178.878	-0.502847
900.8	179.013	-0.502628
901.6	179.146	-0.502435
902.4	179.28	-0.502425
903.2	179.414	-0.502157
904	179.548	-0.502013
904.8	179.683	-0.502071
905.6	179.817	-0.502071
906.4	179.952	-0.501820
907.2	180.087	-0.501531
908	180.22	-0.501130
908.8	180.355	-0.500841
909.6	180.488	-0.500702
910.4	180.623	-0.500488
911.2	180.757	-0.500354
912	180.891	-0.500322
912.8	181.028	-0.500365
913.6	181.161	-0.500445
914.4	181.294	-0.500263
915.2	181.429	-0.499926
916	181.564	-0.499712
916.8	181.698	-0.499557
917.6	181.831	-0.499391
918.4	181.967	-0.499113
919.2	182.1	-0.498926
920	182.234	-0.498744
920.8	182.368	-0.498674
921.6	182.503	-0.498241
922.4	182.637	-0.497840
923.2	182.772	-0.497588
924	182.906	-0.497331
924.8	183.04	-0.496823
925.6	183.173	-0.496261
926.4	183.308	-0.495946
927.2	183.443	-0.495758
928	183.578	-0.495550
928.8	183.712	-0.495250
929.6	183.846	-0.495143
930.4	183.982	-0.495186
931.2	184.114	-0.495090
932	184.249	-0.495020
932.8	184.384	-0.494801
933.6	184.513	-0.494860
934.4	184.652	-0.494929
935.2	184.789	-0.495116
936	184.92	-0.495352
936.8	185.054	-0.495336
937.6	185.188	-0.495288
938.4	185.323	-0.495122
939.2	185.458	-0.494967
940	185.591	-0.494635
940.8	185.724	-0.494319
941.6	185.856	-0.494148
942.4	185.996	-0.493961
943.2	186.129	-0.494047
944	186.263	-0.493795
944.8	186.397	-0.493405
945.6	186.533	-0.493062
946.4	186.669	-0.492377
947.2	186.804	-0.492137
948	186.937	-0.491783
948.8	187.07	-0.491660
949.6	187.209	-0.491313
950.4	187.34	-0.491056
951.2	187.475	-0.491168
952	187.608	-0.491270
952.8	187.744	-0.490938
953.6	187.879	-0.490558
954.4	188.014	-0.490253
955.2	188.147	-0.489986
956	188.281	-0.489756
956.8	188.414	-0.489365
957.6	188.55	-0.489098
958.4	188.686	-0.489210
959.2	188.82	-0.488991
960	188.953	-0.489082
960.8	189.088	-0.489055
961.6	189.222	-0.488948
962.4	189.356	-0.488948
963.2	189.49	-0.488739
964	189.623	-0.488536
964.8	189.759	-0.488376
965.6	189.893	-0.488252
966.4	190.027	-0.488022
967.2	190.159	-0.487894
968	190.292	-0.487723
968.8	190.428	-0.487530
969.6	190.563	-0.487611
970.4	190.697	-0.487808
971.2	190.83	-0.487787
972	190.963	-0.487905
972.8	191.1	-0.488146
973.6	191.233	-0.488434
974.4	191.369	-0.488525
975.2	191.503	-0.488343
976	191.637	-0.488386
976.8	191.771	-0.488504
977.6	191.907	-0.488381
978.4	192.041	-0.488338
979.2	192.176	-0.488295
980	192.311	-0.488360
980.8	192.446	-0.488140
981.6	192.58	-0.488231
982.4	192.716	-0.488103
983.2	192.852	-0.488108
984	192.987	-0.487862
984.8	193.12	-0.487546
985.6	193.256	-0.487402
986.4	193.39	-0.486728
987.2	193.524	-0.486102
988	193.657	-0.485556
988.8	193.794	-0.484796
989.6	193.93	-0.484272
990.4	194.064	-0.483534
991.2	194.198	-0.482903
992	194.332	-0.482314
992.8	194.468	-0.481699
993.6	194.601	-0.481265
994.4	194.738	-0.480977
995.2	194.869	-0.480543
996	195.004	-0.480335
996.8	195.139	-0.480019
997.6	195.274	-0.479725
998.4	195.408	-0.479206
999.2	195.545	-0.478516
1000	195.68	-0.477799
1000.8	195.816	-0.477221
1001.6	195.951	-0.476627
1002.4	196.086	-0.476220
1003.2	196.22	-0.475739
1004	196.355	-0.475455
1004.8	196.492	-0.475140
1005.6	196.626	-0.474755
1006.4	196.761	-0.474102
1007.2	196.895	-0.473529
1008	197.03	-0.472952
1008.8	197.163	-0.472352
1009.6	197.294	-0.471796
1010.4	197.433	-0.471154
1011.2	197.569	-0.470662
1012	197.702	-0.470063
1012.8	197.837	-0.469196
1013.6	197.967	-0.468795
1014.4	198.104	-0.468179
1015.2	198.241	-0.467650
1016	198.374	-0.467447
1016.8	198.508	-0.467003
1017.6	198.638	-0.466665
1018.4	198.775	-0.466291
1019.2	198.914	-0.465949
1020	199.048	-0.465686
1020.8	199.184	-0.465280
1021.6	199.311	-0.464739
1022.4	199.452	-0.464370
1023.2	199.587	-0.464199
1024	199.722	-0.464071
1024.8	199.856	-0.463750
1025.6	199.986	-0.463338
1026.4	200.124	-0.462904
1027.2	200.259	-0.462546
1028	200.395	-0.462262
1028.8	200.528	-0.461931
1029.6	200.657	-0.461567
1030.4	200.796	-0.461310
1031.2	200.93	-0.461299
1032	201.065	-0.461289
1032.8	201.201	-0.461182
1033.6	201.332	-0.461080
1034.4	201.47	-0.461011
1035.2	201.602	-0.461011
1036	201.742	-0.460781
1036.8	201.874	-0.460417
1037.6	202.006	-0.460122
1038.4	202.141	-0.459962
1039.2	202.273	-0.459502
1040	202.411	-0.459229
1040.8	202.546	-0.458935
1041.6	202.682	-0.458731
1042.4	202.814	-0.458325
1043.2	202.951	-0.457892
1044	203.087	-0.457592
1044.8	203.22	-0.457282
1045.6	203.355	-0.456816
1046.4	203.489	-0.456410
1047.2	203.627	-0.456260
1048	203.762	-0.456196
1048.8	203.896	-0.456153
1049.6	204.029	-0.456062
1050.4	204.165	-0.455639
1051.2	204.301	-0.455195
1052	204.43	-0.454719
1052.8	204.568	-0.453943
1053.6	204.703	-0.453333
1054.4	204.838	-0.452520
1055.2	204.972	-0.451707
1056	205.108	-0.451156
1056.8	205.242	-0.450717
1057.6	205.376	-0.450353
1058.4	205.509	-0.450054
1059.2	205.646	-0.449781
1060	205.776	-0.449867
1060.8	205.913	-0.449877
1061.6	206.045	-0.449728
1062.4	206.182	-0.449401
1063.2	206.317	-0.448802
1064	206.452	-0.448037
1064.8	206.586	-0.447283
1065.6	206.721	-0.446507
1066.4	206.855	-0.445854
1067.2	206.988	-0.445629
1068	207.125	-0.445619
1068.8	207.259	-0.445763
1069.6	207.396	-0.446095
1070.4	207.529	-0.446293
1071.2	207.663	-0.446518
1072	207.8	-0.446603
1072.8	207.932	-0.446400
1073.6	208.069	-0.446288
1074.4	208.201	-0.446100
1075.2	208.336	-0.445822
1076	208.473	-0.445571
1076.8	208.602	-0.445357
1077.6	208.741	-0.445159
1078.4	208.873	-0.444929
1079.2	209.007	-0.444597
1080	209.146	-0.444351
1080.8	209.277	-0.444030
1081.6	209.415	-0.443554
1082.4	209.548	-0.442949
1083.2	209.683	-0.442559
1084	209.813	-0.442195
1084.8	209.951	-0.441852
1085.6	210.09	-0.441537
1086.4	210.225	-0.441542
1087.2	210.362	-0.441745
1088	210.496	-0.441858
1088.8	210.633	-0.441836
1089.6	210.771	-0.441499
1090.4	210.906	-0.441173
1091.2	211.042	-0.440659
1092	211.177	-0.439991
1092.8	211.311	-0.439413
1093.6	211.447	-0.438610
1094.4	211.582	-0.437883
1095.2	211.716	-0.437187
1096	211.852	-0.436481
1096.8	211.985	-0.435764
1097.6	212.118	-0.434956
1098.4	212.255	-0.434261
1099.2	212.387	-0.433870
1100	212.522	-0.433656
1100.8	212.657	-0.433646
1101.6	212.793	-0.433737
1102.4	212.929	-0.433908
1103.2	213.061	-0.434074
1104	213.199	-0.434154
1104.8	213.333	-0.433961
1105.6	213.468	-0.433774
1106.4	213.599	-0.433341
1107.2	213.735	-0.432923
1108	213.865	-0.432629
1108.8	214.004	-0.432228
1109.6	214.138	-0.432228
1110.4	214.272	-0.432025
1111.2	214.405	-0.431869
1112	214.534	-0.431725
1112.8	214.677	-0.431618
1113.6	214.811	-0.431677
1114.4	214.944	-0.431629
1115.2	215.077	-0.431564
1116	215.211	-0.431704
1116.8	215.347	-0.431853
1117.6	215.479	-0.432089
1118.4	215.616	-0.432356
1119.2	215.748	-0.432469
1120	215.878	-0.432618
1120.8	216.021	-0.432747
1121.6	216.157	-0.433078
1122.4	216.29	-0.433292
1123.2	216.423	-0.433506
1124	216.556	-0.433806
1124.8	216.694	-0.433983
1125.6	216.831	-0.434314
1126.4	216.967	-0.434469
1127.2	217.104	-0.434405
1128	217.237	-0.434266
1128.8	217.373	-0.434084
1129.6	217.508	-0.434084
1130.4	217.642	-0.433972
1131.2	217.77	-0.433699
1132	217.91	-0.433244
1132.8	218.042	-0.433004
1133.6	218.176	-0.432458
1134.4	218.314	-0.431821
1135.2	218.449	-0.430981
1136	218.583	-0.430436
1136.8	218.717	-0.429976
1137.6	218.847	-0.429783
1138.4	218.985	-0.429719
1139.2	219.115	-0.429906
1140	219.253	-0.430222
1140.8	219.388	-0.430703
1141.6	219.525	-0.431110
1142.4	219.661	-0.431543
1143.2	219.795	-0.431923
1144	219.932	-0.432228
1144.8	220.065	-0.432667
1145.6	220.2	-0.433078
1146.4	220.336	-0.433207
1147.2	220.471	-0.433416
1148	220.607	-0.433581
1148.8	220.743	-0.433646
1149.6	220.879	-0.433480
1150.4	221.015	-0.433346
1151.2	221.15	-0.433228
1152	221.285	-0.433153
1152.8	221.421	-0.432929
1153.6	221.555	-0.432533
1154.4	221.692	-0.432180
1155.2	221.826	-0.431923
1156	221.962	-0.431543
1156.2	221.993	-0.431506